timestamp,AccX,AccY,AccZ
1637488120119,-0.040701430290937424,0.12210428714752197,9.710882186889648
1637488120178,-0.038307227194309235,0.11971008777618408,9.718064308166504
1637488120197,,0.1173158809542656,
1637488120198,-0.02513911761343479,,9.718064308166504
1637488120200,-0.03232172131538391,0.1173158809542656,9.720458984375
1637488120224,-0.04429273307323456,0.12210428714752197,9.716867446899414
1637488120242,-0.03232172131538391,0.12210428714752197,9.716867446899414
1637488120277,,0.12330138683319092,
1637488120278,-0.035913024097681046,,9.724050521850586
1637488120293,-0.023942016065120697,0.1280897855758667,9.71926212310791
1637488120316,-0.026336219161748886,0.12210428714752197,9.716867446899414
1637488120331,-0.02992752194404602,0.12330138683319092,9.728838920593262
1637488120340,-0.040701430290937424,0.11971008777618408,9.727641105651855
1637488120373,-0.03711012750864029,0.11851298063993454,9.720458984375
1637488120380,,0.11851298063993454,
1637488120381,-0.035913024097681046,,9.724050521850586
1637488120401,-0.033518824726343155,0.1173158809542656,9.72285270690918
1637488120425,-0.02753331884741783,0.11971008777618408,9.713275909423828
1637488120452,-0.0347159244120121,0.1173158809542656,9.720458984375
1637488120477,,0.1173158809542656,
1637488120478,-0.035913024097681046,,9.725247383117676
1637488120500,-0.03711012750864029,0.12689268589019775,9.71926212310791
1637488120530,-0.028730420395731926,0.1149216815829277,9.71926212310791
1637488120570,-0.02753331884741783,0.11851298063993454,9.707290649414062
1637488120604,-0.033518824726343155,0.11851298063993454,9.72165584564209
1637488120639,-0.035913024097681046,0.12330138683319092,9.71926212310791
1637488120677,-0.02513911761343479,0.12210428714752197,9.725247383117676
1637488120715,-0.03950432687997818,0.12090718746185303,9.727641105651855
1637488120752,,0.11611878126859665,
1637488120753,-0.038307227194309235,0.12090718746185303,9.718064308166504
1637488120788,-0.035913024097681046,0.1256955862045288,9.715670585632324
1637488120822,-0.02992752194404602,0.12090718746185303,9.714473724365234
1637488120855,-0.031124621629714966,0.12449848651885986,9.718064308166504
1637488120889,-0.02753331884741783,0.12330138683319092,9.715670585632324
1637488120923,-0.031124621629714966,0.1149216815829277,9.715670585632324
1637488120956,-0.03950432687997818,0.12090718746185303,9.720458984375
1637488120989,,0.11971008777618408,
1637488120990,-0.04429273307323456,0.11851298063993454,9.706093788146973
1637488121024,-0.03711012750864029,0.12330138683319092,9.715670585632324
1637488121057,-0.03711012750864029,0.11611878126859665,9.709685325622559
1637488121091,-0.04429273307323456,0.12090718746185303,9.706093788146973
1637488121125,,0.12210428714752197,
1637488121126,-0.040701430290937424,0.12330138683319092,9.72165584564209
1637488121162,-0.026336219161748886,0.12689268589019775,9.707290649414062
1637488121198,,0.11611878126859665,
1637488121199,-0.03232172131538391,,9.708487510681152
1637488121232,-0.02753331884741783,0.12090718746185303,9.720458984375
1637488121266,-0.035913024097681046,0.11851298063993454,9.724050521850586
1637488121301,-0.03711012750864029,0.11851298063993454,9.706093788146973
1637488121335,-0.033518824726343155,0.1173158809542656,9.712079048156738
1637488121369,-0.023942016065120697,0.1173158809542656,9.707290649414062
1637488121404,-0.03232172131538391,0.11971008777618408,9.704896926879883
1637488121437,-0.03232172131538391,0.1173158809542656,9.707290649414062
1637488121471,-0.043095629662275314,0.1149216815829277,9.714473724365234
1637488121504,-0.0347159244120121,0.11971008777618408,9.708487510681152
1637488121537,,0.12449848651885986,9.708487510681152
1637488121538,-0.033518824726343155,,
1637488121542,-0.04189852997660637,0.12090718746185303,9.704896926879883
1637488121571,-0.035913024097681046,0.11611878126859665,9.700108528137207
1637488121605,-0.035913024097681046,0.11851298063993454,9.71926212310791
1637488121639,-0.035913024097681046,0.12449848651885986,9.713275909423828
1637488121679,,0.11372458189725876,9.704896926879883
1637488121680,-0.038307227194309235,,
1637488121682,-0.033518824726343155,0.11971008777618408,9.703699111938477
1637488121720,-0.031124621629714966,0.11252748221158981,9.701305389404297
1637488121721,-0.031124621629714966,0.12689268589019775,9.695320129394531
1637488121757,-0.028730420395731926,0.12210428714752197,9.706093788146973
1637488121789,,0.1149216815829277,
1637488121790,-0.038307227194309235,0.11611878126859665,9.701305389404297
1637488121824,,0.12928688526153564,
1637488121825,-0.028730420395731926,0.12090718746185303,9.700108528137207
1637488121858,,0.1149216815829277,
1637488121859,-0.0347159244120121,,9.701305389404297
1637488121892,,0.1173158809542656,
1637488121893,-0.03711012750864029,0.11372458189725876,9.713275909423828
1637488121927,-0.02992752194404602,0.11133038252592087,9.704896926879883
1637488121963,-0.02992752194404602,0.11252748221158981,9.701305389404297
1637488121997,,0.12689268589019775,
1637488121998,-0.026336219161748886,,9.712079048156738
1637488122033,-0.02992752194404602,0.12210428714752197,9.704896926879883
1637488122071,,0.1173158809542656,
1637488122072,-0.03711012750864029,0.12210428714752197,9.707290649414062
1637488122110,-0.0347159244120121,0.11013327538967133,9.704896926879883
1637488122152,-0.033518824726343155,0.1256955862045288,9.713275909423828
1637488122188,,0.11971008777618408,9.695320129394531
1637488122189,-0.033518824726343155,,9.707290649414062
1637488122227,-0.031124621629714966,0.11851298063993454,9.710882186889648
1637488122266,-0.0347159244120121,0.11133038252592087,9.708487510681152
1637488122300,-0.03711012750864029,0.12210428714752197,9.706093788146973
1637488122335,-0.03711012750864029,0.12689268589019775,9.706093788146973
1637488122371,-0.03232172131538391,0.12210428714752197,9.703699111938477
1637488122406,-0.02992752194404602,0.12449848651885986,9.700108528137207
1637488122439,-0.035913024097681046,0.11133038252592087,9.706093788146973
1637488122479,,0.1256955862045288,9.697713851928711
1637488122480,-0.033518824726343155,,
1637488122517,-0.033518824726343155,0.11851298063993454,9.709685325622559
1637488122555,-0.03232172131538391,0.12689268589019775,9.702502250671387
1637488122591,-0.03232172131538391,0.11611878126859665,9.704896926879883
1637488122629,-0.0347159244120121,0.1149216815829277,9.703699111938477
1637488122665,-0.02992752194404602,0.12090718746185303,9.712079048156738
1637488122699,-0.033518824726343155,0.12090718746185303,9.704896926879883
1637488122734,,0.11851298063993454,
1637488122735,-0.035913024097681046,0.1256955862045288,9.714473724365234
1637488122770,-0.038307227194309235,0.11971008777618408,9.704896926879883
1637488122806,-0.04189852997660637,0.12210428714752197,9.6989107131958
1637488122843,-0.031124621629714966,0.12689268589019775,9.703699111938477
1637488122875,,0.12210428714752197,9.701305389404297
1637488122876,-0.0454898327589035,,
1637488122914,-0.035913024097681046,0.11372458189725876,9.714473724365234
1637488122951,,0.12330138683319092,9.692925453186035
1637488122952,-0.03232172131538391,,
1637488122986,-0.026336219161748886,0.12210428714752197,9.697713851928711
1637488123024,-0.038307227194309235,0.12330138683319092,9.701305389404297
1637488123064,,0.12090718746185303,
1637488123065,-0.03950432687997818,0.11611878126859665,9.716867446899414
1637488123103,-0.033518824726343155,0.11971008777618408,9.706093788146973
1637488123137,-0.040701430290937424,0.12210428714752197,9.713275909423828
1637488123171,-0.02513911761343479,0.12210428714752197,9.707290649414062
1637488123204,-0.033518824726343155,0.12090718746185303,9.703699111938477
1637488123237,,0.11252748221158981,
1637488123238,-0.035913024097681046,,9.707290649414062
1637488123271,-0.026336219161748886,0.1173158809542656,9.6989107131958
1637488123304,-0.028730420395731926,0.11611878126859665,9.701305389404297
1637488123339,-0.031124621629714966,0.12449848651885986,9.713275909423828
1637488123375,-0.038307227194309235,0.1149216815829277,9.6989107131958
1637488123410,-0.0347159244120121,0.12330138683319092,9.712079048156738
1637488123445,-0.033518824726343155,0.12928688526153564,9.702502250671387
1637488123482,,0.11851298063993454,
1637488123483,-0.0347159244120121,0.11372458189725876,9.702502250671387
1637488123516,-0.03232172131538391,0.12689268589019775,9.703699111938477
1637488123550,,0.12330138683319092,9.702502250671387
1637488123551,-0.0347159244120121,,
1637488123584,-0.03232172131538391,0.11971008777618408,9.697713851928711
1637488123619,-0.02992752194404602,0.12449848651885986,9.708487510681152
1637488123654,-0.038307227194309235,0.12090718746185303,9.696516990661621
1637488123688,-0.038307227194309235,0.1173158809542656,9.694122314453125
1637488123723,-0.02992752194404602,0.12090718746185303,9.712079048156738
1637488123756,-0.035913024097681046,0.11971008777618408,9.706093788146973
1637488123789,,0.1173158809542656,
1637488123790,-0.035913024097681046,0.11851298063993454,9.709685325622559
1637488123824,-0.03711012750864029,0.12210428714752197,9.707290649414062
1637488123858,-0.03232172131538391,0.1173158809542656,9.702502250671387
1637488123891,-0.03950432687997818,0.11133038252592087,9.696516990661621
1637488123927,-0.03711012750864029,0.1173158809542656,9.706093788146973
1637488123963,-0.038307227194309235,0.11851298063993454,9.692925453186035
1637488123997,-0.03711012750864029,0.1173158809542656,9.700108528137207
1637488124031,-0.038307227194309235,0.12090718746185303,9.706093788146973
1637488124064,,0.11971008777618408,9.697713851928711
1637488124065,-0.02992752194404602,,
1637488124099,-0.031124621629714966,0.11851298063993454,9.694122314453125
1637488124135,-0.035913024097681046,0.11252748221158981,9.704896926879883
1637488124170,-0.028730420395731926,0.1173158809542656,9.703699111938477
1637488124207,,0.1280897855758667,
1637488124208,-0.02274491637945175,0.12210428714752197,9.701305389404297
1637488124246,,0.12210428714752197,
1637488124247,-0.03950432687997818,0.12330138683319092,9.703699111938477
1637488124284,-0.03711012750864029,0.12090718746185303,9.707290649414062
1637488124318,-0.028730420395731926,0.12210428714752197,9.696516990661621
1637488124351,-0.033518824726343155,0.12210428714752197,9.700108528137207
1637488124385,-0.035913024097681046,0.12330138683319092,9.6989107131958
1637488124422,-0.033518824726343155,0.1173158809542656,9.694122314453125
1637488124457,-0.033518824726343155,0.12210428714752197,9.696516990661621
1637488124494,-0.03950432687997818,0.12210428714752197,9.697713851928711
1637488124530,-0.03711012750864029,0.11611878126859665,9.6989107131958
1637488124564,-0.038307227194309235,0.1173158809542656,9.696516990661621
1637488124598,-0.038307227194309235,0.1256955862045288,9.701305389404297
1637488124632,-0.04189852997660637,0.11971008777618408,9.709685325622559
1637488124633,-0.03232172131538391,,
1637488124666,-0.038307227194309235,0.1173158809542656,9.701305389404297
1637488124700,-0.026336219161748886,0.1280897855758667,9.692925453186035
1637488124701,-0.021547814831137657,,
1637488124734,-0.033518824726343155,0.12330138683319092,9.695320129394531
1637488124768,,0.11013327538967133,
1637488124769,-0.028730420395731926,0.12330138683319092,9.694122314453125
1637488124803,-0.0347159244120121,0.12449848651885986,9.692925453186035
1637488124837,-0.0347159244120121,0.12449848651885986,9.697713851928711
1637488124872,-0.02753331884741783,0.11851298063993454,9.697713851928711
1637488124906,,0.11851298063993454,
1637488124908,-0.04189852997660637,0.11851298063993454,9.701305389404297
1637488124941,-0.035913024097681046,0.12090718746185303,9.696516990661621
1637488124976,-0.031124621629714966,0.12449848651885986,9.700108528137207
1637488125017,-0.03232172131538391,0.12330138683319092,9.695320129394531
1637488125051,-0.026336219161748886,0.12090718746185303,9.6989107131958
1637488125083,-0.035913024097681046,0.1149216815829277,9.702502250671387
1637488125117,-0.043095629662275314,0.1149216815829277,9.692925453186035
1637488125151,-0.038307227194309235,0.11252748221158981,9.696516990661621
1637488125185,-0.035913024097681046,0.1173158809542656,9.702502250671387
1637488125218,,0.11851298063993454,
1637488125219,-0.031124621629714966,,9.703699111938477
1637488125252,-0.033518824726343155,0.11971008777618408,9.695320129394531
1637488125253,-0.035913024097681046,,
1637488125287,-0.0347159244120121,0.12330138683319092,9.697713851928711
1637488125322,-0.03232172131538391,0.11971008777618408,9.703699111938477
1637488125361,,0.1149216815829277,
1637488125362,-0.02992752194404602,,9.697713851928711
1637488125402,-0.035913024097681046,0.11971008777618408,9.707290649414062
1637488125439,,0.12090718746185303,
1637488125440,,0.11611878126859665,9.702502250671387
1637488125484,,0.12449848651885986,
1637488125485,-0.035913024097681046,0.1149216815829277,9.697713851928711
1637488125527,-0.035913024097681046,0.11372458189725876,9.692925453186035
1637488125563,-0.033518824726343155,0.12928688526153564,9.703699111938477
1637488125596,,0.11851298063993454,9.68813705444336
1637488125597,-0.0347159244120121,,
1637488125602,-0.033518824726343155,0.11851298063993454,9.713275909423828
1637488125640,-0.03950432687997818,0.1256955862045288,9.695320129394531
1637488125679,-0.03232172131538391,0.12210428714752197,9.695320129394531
1637488125712,-0.03232172131538391,0.1173158809542656,9.700108528137207
1637488125744,-0.031124621629714966,0.1256955862045288,9.700108528137207
1637488125780,-0.035913024097681046,0.12928688526153564,9.691728591918945
1637488125817,,0.11851298063993454,9.696516990661621
1637488125818,-0.0347159244120121,,
1637488125852,-0.0347159244120121,0.11372458189725876,9.697713851928711
1637488125886,-0.03711012750864029,0.11133038252592087,9.701305389404297
1637488125921,-0.033518824726343155,0.1280897855758667,9.68813705444336
1637488125954,-0.03950432687997818,0.11971008777618408,9.6989107131958
1637488125988,,0.13048399984836578,
1637488125989,-0.031124621629714966,0.1173158809542656,9.68933391571045
1637488126023,-0.04189852997660637,0.12449848651885986,9.701305389404297
1637488126059,-0.040701430290937424,0.12090718746185303,9.695320129394531
1637488126094,,0.11611878126859665,
1637488126095,-0.0347159244120121,0.1173158809542656,9.694122314453125
1637488126128,-0.040701430290937424,0.11971008777618408,9.695320129394531
1637488126164,-0.033518824726343155,0.1173158809542656,9.6989107131958
1637488126197,-0.047884032130241394,0.12330138683319092,9.694122314453125
1637488126233,-0.033518824726343155,0.11971008777618408,9.690531730651855
1637488126267,-0.043095629662275314,0.12090718746185303,9.694122314453125
1637488126300,-0.043095629662275314,0.11971008777618408,9.690531730651855
1637488126334,-0.033518824726343155,0.1256955862045288,9.68933391571045
1637488126367,-0.023942016065120697,0.12210428714752197,9.68694019317627
1637488126401,-0.02992752194404602,0.12090718746185303,9.68933391571045
1637488126435,-0.035913024097681046,0.1256955862045288,9.68574333190918
1637488126468,-0.038307227194309235,0.11133038252592087,9.694122314453125
1637488126501,-0.023942016065120697,0.12090718746185303,9.68813705444336
1637488126502,-0.02992752194404602,,
1637488126535,-0.026336219161748886,0.11851298063993454,9.695320129394531
1637488126568,-0.0454898327589035,0.11851298063993454,9.692925453186035
1637488126602,-0.0347159244120121,0.1149216815829277,9.695320129394531
1637488126635,-0.03711012750864029,0.12090718746185303,9.695320129394531
1637488126673,-0.038307227194309235,0.12689268589019775,9.6989107131958
1637488126710,-0.026336219161748886,0.11851298063993454,9.68933391571045
1637488126745,-0.033518824726343155,0.11971008777618408,9.690531730651855
1637488126779,,0.1280897855758667,9.696516990661621
1637488126780,-0.035913024097681046,0.12928688526153564,
1637488126781,-0.047884032130241394,,9.694122314453125
1637488126814,-0.04189852997660637,0.12210428714752197,9.683348655700684
1637488126849,-0.03232172131538391,0.11971008777618408,9.704896926879883
1637488126883,-0.02513911761343479,0.12090718746185303,9.691728591918945
1637488126917,-0.04189852997660637,0.1280897855758667,9.690531730651855
1637488126950,-0.047884032130241394,0.1173158809542656,9.691728591918945
1637488126985,-0.02992752194404602,0.11133038252592087,9.692925453186035
1637488126986,-0.026336219161748886,,
1637488127021,-0.04429273307323456,0.1149216815829277,9.694122314453125
1637488127056,-0.04189852997660637,0.12689268589019775,9.68813705444336
1637488127091,-0.04429273307323456,0.12090718746185303,9.68933391571045
1637488127125,-0.02513911761343479,0.11252748221158981,9.692925453186035
1637488127160,-0.03950432687997818,0.12330138683319092,9.68813705444336
1637488127194,-0.0454898327589035,0.1280897855758667,9.68813705444336
1637488127228,-0.031124621629714966,0.12090718746185303,9.684545516967773
1637488127263,-0.031124621629714966,0.11252748221158981,9.68574333190918
1637488127296,,0.11611878126859665,9.691728591918945
1637488127297,-0.038307227194309235,,
1637488127329,,0.1173158809542656,
1637488127330,-0.05027823522686958,0.11971008777618408,9.696516990661621
1637488127364,-0.03950432687997818,0.11133038252592087,9.690531730651855
1637488127397,-0.033518824726343155,0.12330138683319092,9.691728591918945
1637488127431,-0.040701430290937424,0.12210428714752197,9.696516990661621
1637488127465,-0.02992752194404602,0.12689268589019775,9.6989107131958
1637488127498,,0.12330138683319092,
1637488127499,-0.033518824726343155,,9.680954933166504
1637488127500,,0.12330138683319092,
1637488127501,-0.03711012750864029,,9.696516990661621
1637488127533,-0.03232172131538391,0.12210428714752197,9.684545516967773
1637488127566,-0.03711012750864029,0.12210428714752197,9.68813705444336
1637488127600,-0.02513911761343479,0.10773907601833344,9.691728591918945
1637488127633,-0.040701430290937424,0.11133038252592087,9.692925453186035
1637488127669,-0.043095629662275314,0.11133038252592087,9.658209800720215
1637488127704,-0.02274491637945175,0.13048399984836578,9.697713851928711
1637488127737,-0.0347159244120121,0.13407529890537262,9.674968719482422
1637488127771,-0.028730420395731926,0.11971008777618408,9.683348655700684
1637488127804,-0.04429273307323456,0.10055647045373917,9.673771858215332
1637488127838,-0.06464344263076782,0.1173158809542656,9.707290649414062
1637488127871,-0.033518824726343155,0.1173158809542656,9.676166534423828
1637488127905,-0.020350715145468712,0.11971008777618408,9.703699111938477
1637488127939,-0.05267243832349777,0.1388636976480484,9.68694019317627
1637488127977,-0.033518824726343155,0.12928688526153564,9.679757118225098
1637488128011,-0.038307227194309235,0.1472434103488922,9.701305389404297
1637488128045,-0.03711012750864029,0.13287819921970367,9.691728591918945
1637488128079,,0.1256955862045288,
1637488128080,-0.038307227194309235,,9.691728591918945
1637488128081,-0.04668693244457245,0.12210428714752197,9.709685325622559
1637488128114,-0.033518824726343155,0.11611878126859665,9.692925453186035
1637488128149,-0.015562310814857483,0.1280897855758667,9.654618263244629
1637488128185,-0.05626374110579491,0.11252748221158981,9.694122314453125
1637488128219,,0.07900865375995636,
1637488128220,-0.04908113554120064,,9.679757118225098
1637488128257,-0.047884032130241394,0.07781155407428741,9.667786598205566
1637488128290,-0.05147533491253853,0.1280897855758667,9.736021041870117
1637488128325,-0.016759412363171577,0.15801730751991272,9.702502250671387
1637488128365,-0.038307227194309235,0.13527239859104156,9.691728591918945
1637488128393,-0.023942016065120697,0.13048399984836578,9.679757118225098
1637488128421,,0.14365209639072418,9.697713851928711
1637488128422,-0.02753331884741783,,
1637488128449,-0.028730420395731926,0.1173158809542656,9.68933391571045
1637488128476,-0.05386953800916672,0.1041477769613266,9.692925453186035
1637488128500,,0.09457096457481384,9.731232643127441
1637488128501,-0.07422025501728058,,9.68574333190918
1637488128528,-0.0011971008498221636,0.1412578970193863,9.621099472045898
1637488128549,-0.05267243832349777,0.15442600846290588,9.666589736938477
1637488128570,-0.010773907415568829,0.1412578970193863,9.695320129394531
1637488128591,0.008379706181585789,0.11851298063993454,9.695320129394531
1637488128612,-0.017956512048840523,0.12928688526153564,9.697713851928711
1637488128633,-0.043095629662275314,0.12928688526153564,9.68694019317627
1637488128654,,0.13168109953403473,9.694122314453125
1637488128655,-0.07781155407428741,,
1637488128690,-0.0694318488240242,0.1149216815829277,9.690531730651855
1637488128724,,0.09457096457481384,
1637488128725,-0.0035913025494664907,0.07422025501728058,9.683348655700684
1637488128748,-0.06224924325942993,0.0933738648891449,9.691728591918945
1637488128777,,0.11013327538967133,9.68574333190918
1637488128778,-0.07062894850969315,,
1637488128815,-0.0586579404771328,0.11252748221158981,9.691728591918945
1637488128847,-0.009576806798577309,0.10295066982507706,9.682151794433594
1637488128891,-0.05386953800916672,0.14484919607639313,9.700108528137207
1637488128930,-0.03711012750864029,0.1472434103488922,9.692925453186035
1637488128968,-0.002394201699644327,0.11971008777618408,9.68694019317627
1637488129001,,0.12210428714752197,
1637488129002,-0.04908113554120064,0.1280897855758667,9.6989107131958
1637488129048,-0.05267243832349777,0.11851298063993454,9.694122314453125
1637488129078,-0.026336219161748886,0.0933738648891449,9.68813705444336
1637488129130,-0.02753331884741783,0.11133038252592087,9.68933391571045
1637488129145,,0.1173158809542656,9.697713851928711
1637488129146,-0.040701430290937424,,
1637488129299,,0.10893617570400238,
1637488129300,-0.021547814831137657,0.12928688526153564,9.68813705444336
1637488129315,1.171961784362793,-0.6476315855979919,9.406818389892578
1637488129321,-0.9133879542350769,0.047884032130241394,9.424775123596191
1637488129340,,0.4465186297893524,
1637488129341,-1.0869675874710083,,9.9371337890625
1637488129361,0.8427590131759644,-0.6596025824546814,10.319009780883789
1637488129380,3.3446998596191406,-0.9660604000091553,9.526528358459473
1637488129400,,-1.6915035247802734,9.297882080078125
1637488129401,3.204638957977295,,
1637488129420,0.019153613597154617,-1.5753847360610962,9.435548782348633
1637488129440,-2.1535844802856445,-1.016338586807251,10.012551307678223
1637488129461,-1.8698714971542358,-1.7729063034057617,8.621520042419434
1637488129480,,-0.8068459630012512,10.346542358398438
1637488129481,-1.7968484163284302,,
1637488129500,1.1204863786697388,0.1604115068912506,10.06043529510498
1637488129520,,-2.252943754196167,12.441469192504883
1637488129521,1.2186486721038818,,
1637488129540,-0.42018240690231323,-2.580949544906616,13.459004402160645
1637488129560,-2.7880477905273438,-3.2118215560913086,13.37281322479248
1637488129580,-1.821987509727478,-2.7557260990142822,13.193248748779297
1637488129600,0.12210428714752197,-1.2557587623596191,13.470975875854492
1637488129620,,-1.8387469053268433,13.369222640991211
1637488129621,0.6009446382522583,,
1637488129640,,-2.24935245513916,
1637488129641,0.9050082564353943,,11.010933876037598
1637488129660,3.0573954582214355,-2.564189910888672,9.805453300476074
1637488129680,2.631227731704712,-0.39145198464393616,9.20211410522461
1637488129700,,0.2777273952960968,11.160571098327637
1637488129701,2.2206220626831055,,
1637488129720,1.9524714946746826,0.8224082589149475,9.649829864501953
1637488129740,3.045424461364746,-0.950498104095459,8.795100212097168
1637488129760,2.2912509441375732,-0.21787235140800476,7.726089000701904
1637488129780,,-0.07302315533161163,7.067683219909668
1637488129781,3.5637693405151367,,
1637488129800,-0.7050924301147461,2.1116859912872314,6.113594055175781
1637488129820,,3.9815573692321777,7.317877292633057
1637488129821,-0.45250412821769714,,
1637488129840,2.5522189140319824,4.162319660186768,7.926004886627197
1637488129861,4.484339714050293,1.1863269805908203,7.873332500457764
1637488129880,,2.7257986068725586,6.862978935241699
1637488129881,-1.0211269855499268,,
1637488129900,,3.712209701538086,5.834669589996338
1637488129901,0.181959331035614,,
1637488129920,,4.0533833503723145,
1637488129921,4.341884613037109,,5.861005783081055
1637488129940,8.979453086853027,3.377021551132202,6.536170482635498
1637488129960,,2.9987375736236572,6.356605529785156
1637488129961,6.666654586791992,,
1637488129981,0.16639702022075653,4.458003520965576,6.809109687805176
1637488130001,-0.1280897855758667,4.768052577972412,7.979874134063721
1637488130021,6.40927791595459,5.199008941650391,9.059659004211426
1637488130040,,4.879383087158203,
1637488130041,6.2165446281433105,,8.972270965576172
1637488130061,3.824737310409546,5.305551052093506,7.556100368499756
1637488130081,4.479551315307617,5.082890033721924,6.780379295349121
1637488130101,,4.78122091293335,8.099584579467773
1637488130102,7.910442352294922,,
1637488130121,8.708909034729004,3.75291109085083,4.279635429382324
1637488130141,4.78122091293335,5.880159378051758,5.828683853149414
1637488130161,3.949235677719116,5.756857872009277,5.374982833862305
1637488130181,4.612429618835449,7.061697959899902,8.774748802185059
1637488130200,,6.515820026397705,4.745307922363281
1637488130201,5.74129581451416,,
1637488130220,,6.452373504638672,
1637488130221,6.57806921005249,,5.361814498901367
1637488130241,,6.4834980964660645,5.140350818634033
1637488130261,6.008249282836914,6.692990779876709,5.322310447692871
1637488130280,,6.665457725524902,
1637488130281,6.754043102264404,,3.446453332901001
1637488130301,6.521805286407471,6.139930248260498,4.6938323974609375
1637488130320,,5.810727596282959,
1637488130321,6.40927791595459,,3.950432777404785
1637488130340,,5.52821159362793,2.676717519760132
1637488130341,6.411672115325928,,
1637488130360,,5.4875102043151855,
1637488130361,7.680599212646484,,2.9161376953125
1637488130380,,5.589263916015625,
1637488130381,7.115567684173584,,2.9448680877685547
1637488130401,8.13908863067627,5.639542102813721,0.11971008777618408
1637488130420,,5.442020416259766,0.9888052940368652
1637488130421,7.973888874053955,,
1637488130440,,5.009867191314697,1.6974890232086182
1637488130441,6.392518520355225,,
1637488130460,4.751293182373047,5.614402770996094,0.9528923034667969
1637488130480,,6.060921669006348,
1637488130481,5.462371349334717,,0.7410054206848145
1637488130500,,7.06528902053833,1.2976573705673218
1637488130501,6.075286865234375,,
1637488130520,5.843049049377441,7.575253963470459,0.7589619159698486
1637488130540,5.228936672210693,7.663839817047119,1.1767501831054688
1637488130560,,7.8960771560668945,0.33039984107017517
1637488130561,5.243301868438721,,
1637488130580,,8.440757751464844,
1637488130581,5.7089738845825195,,0.5674257874488831
1637488130600,5.368997097015381,8.777143478393555,0.8774749040603638
1637488130622,5.140350818634033,8.683769226074219,0.5195417404174805
1637488130640,,8.886079788208008,
1637488130641,5.396530628204346,,0.06823474913835526
1637488130660,5.596446514129639,8.99740982055664,0.021547814831137657
1637488130680,5.298368453979492,9.050082206726074,0.243011474609375
1637488130701,4.955997467041016,9.32541561126709,1.4700398445129395
1637488130720,4.796782970428467,9.615114212036133,1.580173134803772
1637488130740,,9.53849983215332,
1637488130741,4.95120906829834,,1.5263035297393799
1637488130760,4.744110584259033,9.282320022583008,1.0115501880645752
1637488130780,4.667496204376221,8.605957984924316,-0.0454898327589035
1637488130800,4.5621514320373535,8.098387718200684,0.008379706181585789
1637488130820,4.440047264099121,7.870938301086426,-0.2717418968677521
1637488130840,,7.975085735321045,0.20709845423698425
1637488130841,4.326322555541992,,
1637488130861,4.422090530395508,8.651448249816895,-0.07302315533161163
1637488130881,4.359841346740723,9.288305282592773,1.2533645629882812
1637488130900,4.055777549743652,9.385271072387695,1.1839327812194824
1637488130920,3.6355953216552734,9.345766067504883,1.3623007535934448
1637488130940,,8.850166320800781,1.9823989868164062
1637488130941,3.8319199085235596,,
1637488130960,3.7624878883361816,8.683769226074219,0.6344634294509888
1637488130981,3.780444383621216,8.667010307312012,1.2725181579589844
1637488131001,3.509899616241455,8.514978408813477,1.1516109704971313
1637488131021,3.751713991165161,8.580819129943848,1.1432312726974487
1637488131041,2.9951462745666504,8.44554615020752,0.6224924325942993
1637488131061,3.2597055435180664,8.614337921142578,1.768117904663086
1637488131081,3.2381577491760254,8.992621421813965,1.357512354850769
1637488131101,3.0190882682800293,8.983044624328613,1.1049240827560425
1637488131121,,9.150638580322266,
1637488131122,2.9041666984558105,,0.8367735147476196
1637488131141,,9.442731857299805,0.6236895322799683
1637488131142,2.9712042808532715,,
1637488131162,3.044227361679077,9.36013126373291,1.037886381149292
1637488131181,,9.47265911102295,1.4939818382263184
1637488131182,3.202244758605957,,
1637488131201,,9.475052833557129,
1637488131202,3.185485363006592,,1.6148890256881714
1637488131221,,9.634267807006836,2.3044190406799316
1637488131222,3.2632968425750732,,
1637488131241,,9.136273384094238,
1637488131242,2.9484593868255615,,2.31758713722229
1637488131262,,8.854954719543457,
1637488131263,2.518700122833252,,2.3774423599243164
1637488131281,,8.634688377380371,2.0003554821014404
1637488131282,2.187103271484375,,
1637488131302,2.3271639347076416,8.488641738891602,2.734178304672241
1637488131321,,7.812280178070068,2.8598740100860596
1637488131322,2.6384103298187256,,
1637488131341,0.4800374507904053,7.376535415649414,1.647210717201233
1637488131361,,7.319074630737305,1.580173134803772
1637488131362,0.5135562419891357,,
1637488131381,,9.457097053527832,
1637488131382,0.7805097699165344,,2.8778305053710938
1637488131401,,10.18493366241455,
1637488131402,2.208651065826416,,3.6834793090820312
1637488131421,,13.669694900512695,3.2800562381744385
1637488131422,3.5027170181274414,,
1637488131442,2.229001760482788,11.420342445373535,5.038597583770752
1637488131461,,9.033323287963867,
1637488131462,1.4233529567718506,,3.227383852005005
1637488131481,1.2306196689605713,8.225279808044434,3.178302764892578
1637488131501,,8.547300338745117,
1637488131502,0.8475474119186401,,1.3048399686813354
1637488131521,,9.035717010498047,
1637488131522,0.8415619134902954,,2.2589292526245117
1637488131541,,9.29309368133545,
1637488131542,1.3886369466781616,,3.464409828186035
1637488131561,,8.453926086425781,
1637488131562,0.9564836025238037,,3.6559460163116455
1637488131581,,8.438364028930664,
1637488131582,0.9409212470054626,,3.7912182807922363
1637488131602,,8.47667121887207,
1637488131603,0.39624038338661194,,2.7449522018432617
1637488131621,,8.89445972442627,
1637488131622,2.074575662612915,,3.9408559799194336
1637488131644,0.950498104095459,8.052897453308105,3.551798105239868
1637488131661,-1.502361536026001,4.132391929626465,5.412093162536621
1637488131681,,4.132391929626465,6.033388137817383
1637488131682,-0.3998316824436188,,
1637488134081,-0.1149216815829277,5.418078422546387,5.656301498413086
1637488134084,0.5746083855628967,9.354146003723145,3.1435868740081787
1637488134102,0.5159504413604736,9.285911560058594,3.26688814163208
1637488134120,,9.300276756286621,
1637488134121,0.5973533391952515,,3.2836475372314453
1637488134142,0.5602431893348694,9.242815971374512,3.1759085655212402
1637488134160,,9.181763648986816,
1637488134161,0.6428431272506714,,3.264493942260742
1637488134180,,9.14585018157959,3.227383852005005
1637488134181,0.6584054827690125,,
1637488134202,0.6093243360519409,9.154230117797852,3.135207176208496
1637488134220,,9.153033256530762,
1637488134221,0.6308721303939819,,3.139995574951172
1637488134240,,9.149441719055176,
1637488134241,0.6224924325942993,,3.335123062133789
1637488134260,0.7194576263427734,9.1662015914917,3.35667085647583
1637488134280,0.751779317855835,9.162610054016113,3.094505786895752
1637488134300,,9.41759204864502,2.959233283996582
1637488134301,0.6596025824546814,,
1637488134320,0.8678981065750122,9.32302188873291,2.978386878967285
1637488134340,,9.35773754119873,
1637488134341,0.8463503122329712,,2.96162748336792
1637488134360,0.586579442024231,9.307458877563477,2.9951462745666504
1637488134383,0.44532153010368347,9.260771751403809,2.9688100814819336
1637488134400,,9.557653427124023,
1637488134401,0.706289529800415,,2.9460651874542236
1637488134420,,9.533711433410645,
1637488134421,0.8427590131759644,,2.9293057918548584
1637488134441,0.7170634269714355,9.396044731140137,3.1747114658355713
1637488134460,,9.249998092651367,
1637488134461,0.6224924325942993,,3.1304187774658203
1637488134480,,9.257181167602539,
1637488134481,0.5099649429321289,,2.958036184310913
1637488134500,,9.246406555175781,
1637488134501,0.4908113479614258,,2.9688100814819336
1637488134520,,9.30386734008789,
1637488134521,0.6560112833976746,,2.9305028915405273
1637488134540,,9.563638687133789,
1637488134541,0.6500257849693298,,2.8610711097717285
1637488134560,,9.473855972290039,
1637488134561,0.7086837291717529,,2.9747955799102783
1637488134581,0.629675030708313,9.215282440185547,3.044227361679077
1637488134603,,9.249998092651367,
1637488134604,0.5039794445037842,,3.0873231887817383
1637488134622,,9.305065155029297,
1637488134623,0.4991910457611084,,2.7964274883270264
1637488134641,,9.388861656188965,
1637488134642,0.6141127347946167,,2.8455088138580322
1637488134661,0.5997475385665894,9.346963882446289,2.7712883949279785
1637488134681,,9.435548782348633,2.5474305152893066
1637488134682,0.6141127347946167,,
1637488134701,,9.800664901733398,2.978386878967285
1637488134702,0.9145850539207458,,
1637488134724,0.7960720658302307,9.469067573547363,2.9053637981414795
1637488134741,,9.228450775146484,2.7102363109588623
1637488134742,0.5925649404525757,,
1637488134763,0.9193734526634216,9.036913871765137,2.6563668251037598
1637488134781,,9.232041358947754,2.4588451385498047
1637488134782,0.7326257228851318,,
1637488134801,,9.41639518737793,2.536656618118286
1637488134802,0.8882488012313843,,
1637488134821,,9.634267807006836,
1637488134822,0.9768342971801758,,2.3499090671539307
1637488134841,,9.563638687133789,
1637488134842,0.8906430602073669,,2.6132712364196777
1637488134861,,9.346963882446289,
1637488134862,0.750582218170166,,2.449268341064453
1637488144084,,9.457097053527832,
1637488144085,1.0115501880645752,9.429563522338867,2.140416383743286
1637488144087,0.8942343592643738,,
1637488144100,,9.17817211151123,
1637488144101,0.29568392038345337,,3.5422213077545166
1637488144120,,9.252392768859863,
1637488144121,0.2777273952960968,,3.3937809467315674
1637488144140,,9.232041358947754,
1637488144141,0.39863458275794983,,3.3734302520751953
1637488144160,,9.187748908996582,
1637488144161,0.4321534037590027,,3.4991257190704346
1637488144180,,9.188945770263672,3.3937809467315674
1637488144181,0.3734954595565796,,
1637488144200,,9.20091724395752,
1637488144201,0.3770867586135864,,3.40216064453125
1637488144221,,9.191340446472168,3.509899616241455
1637488144222,0.3519476354122162,,
1637488144240,,9.192537307739258,
1637488144241,0.3531447649002075,,3.58292293548584
1637488144260,,9.23443603515625,
1637488144261,0.30526071786880493,,3.490746021270752
1637488144280,,9.259574890136719,3.420117139816284
1637488144281,0.22625206410884857,,
1637488144301,0.18794482946395874,9.204508781433105,3.489548921585083
1637488144321,,9.187748908996582,
1637488144322,0.21787235140800476,,3.5194764137268066
1637488144340,,9.216479301452637,
1637488144341,0.25977087020874023,,3.4811692237854004
1637488144360,,9.278728485107422,
1637488144361,0.36152446269989014,,3.3937809467315674
1637488144381,,9.300276756286621,
1637488144382,0.363918662071228,,3.341108560562134
1637488144401,,9.271546363830566,
1637488144402,0.3818751573562622,,3.3231520652770996
1637488144421,,9.221267700195312,
1637488144422,0.2992752194404602,,3.224989652633667
1637488144442,0.3172317147254944,9.187748908996582,3.3267433643341064
1637488144461,,9.193734169006348,
1637488144462,0.2513911724090576,,3.269282341003418
1637488144481,,9.221267700195312,
1637488144482,0.2322375625371933,,3.317166566848755
1637488144501,,9.222464561462402,
1637488144502,0.22864626348018646,,3.384204149246216
1637488144521,,9.23563289642334,3.3877954483032227
1637488144522,0.2561795711517334,,
1637488144545,0.22026655077934265,9.242815971374512,3.3865983486175537
1637488144560,,9.247604370117188,
1637488144561,0.2346317619085312,,3.3698389530181885
1637488144580,,9.217676162719727,
1637488144581,0.2454056739807129,,3.377021551132202
1637488144600,,9.2033109664917,
1637488144601,0.22744916379451752,,3.3865983486175537
1637488144620,,9.190143585205078,
1637488144621,0.16759411990642548,,3.3865983486175537
1637488144640,,9.197325706481934,
1637488144641,0.1041477769613266,,3.3662476539611816
1637488144661,0.11013327538967133,9.254786491394043,3.3854012489318848
1637488144680,,9.271546363830566,
1637488144681,0.10893617570400238,,3.3877954483032227
1637488144703,0.1280897855758667,9.287108421325684,3.378218650817871
1637488144720,,9.30386734008789,
1637488144721,0.19393034279346466,,3.308786630630493
1637488144742,,9.3026704788208,
1637488144743,0.2190694510936737,,3.3423056602478027
1637488144761,,9.245209693908691,
1637488144762,0.32680854201316833,,3.2537200450897217
1637488144781,,9.220070838928223,
1637488144782,0.30286651849746704,,3.3949780464172363
1637488144801,,9.172186851501465,3.3267433643341064
1637488144802,0.2513911724090576,,
1637488144821,,9.126696586608887,
1637488144822,0.16759411990642548,,3.47039532661438
1637488144843,,9.14225959777832,3.315969467163086
1637488144844,0.09816227108240128,,
1637488144861,0.2513911724090576,9.168595314025879,3.403357744216919
1637488144881,0.2190694510936737,9.162610054016113,3.4512417316436768
1637488144901,,9.190143585205078,
1637488144902,0.18555063009262085,,3.37941575050354
1637488144921,,9.224859237670898,
1637488144922,0.28371289372444153,,3.4093432426452637
1637488144941,,9.218873977661133,
1637488144942,0.1951274424791336,,3.466804027557373
1637488144961,,9.30386734008789,
1637488144962,0.11971008777618408,,3.383007049560547
1637488144981,,9.32661247253418,
1637488144982,0.08379705995321274,,3.3016040325164795
1637488145002,,9.222464561462402,3.361459255218506
1637488145003,0.11133038252592087,,
1637488145022,0.1041477769613266,9.174580574035645,3.42490553855896
1637488145041,,9.17697525024414,
1637488145042,0.14245499670505524,,3.3854012489318848
1637488145064,0.11133038252592087,9.220070838928223,3.3530795574188232
1637488145081,,9.222464561462402,3.3458969593048096
1637488145082,0.17717093229293823,,
1637488147086,0.12330138683319092,9.278728485107422,3.3470940589904785
1637488147100,,9.363722801208496,
1637488147101,0.2621650993824005,,3.361459255218506
1637488147120,,9.35654067993164,
1637488147121,0.243011474609375,,3.3901896476745605
1637488147140,0.19153612852096558,9.27034854888916,3.33392596244812
1637488147160,,9.20211410522461,3.3243491649627686
1637488147161,0.2825157940387726,,
1637488147180,,9.224859237670898,3.222595453262329
1637488147181,0.4692635238170624,,
1637488147206,0.1999158412218094,9.172186851501465,3.3435027599334717
1637488147220,,9.155426979064941,
1637488147221,0.10055647045373917,,3.355473756790161
1637488147240,,9.245209693908691,
1637488147241,-0.017956512048840523,,3.315969467163086
1637488147261,0.16400282084941864,9.336189270019531,3.272873640060425
1637488147281,0.20709845423698425,9.294290542602539,3.251325845718384
1637488147300,,9.229647636413574,
1637488147301,0.15562310814857483,,3.3028011322021484
1637488147320,,9.2033109664917,
1637488147321,0.16879121959209442,,3.341108560562134
1637488147340,,9.2033109664917,
1637488147341,0.22625206410884857,,3.4129345417022705
1637488147360,,9.211690902709961,
1637488147361,0.2908954918384552,,3.4117374420166016
1637488147380,,9.228450775146484,
1637488147381,0.23702596127986908,,3.399766445159912
1637488147401,,9.229647636413574,
1637488147402,0.18794482946395874,,3.4308910369873047
1637488147421,,9.245209693908691,
1637488147422,0.20949265360832214,,3.360262155532837
1637488147442,0.20949265360832214,9.259574890136719,3.2537200450897217
1637488147462,0.19033902883529663,9.20091724395752,3.337517261505127
1637488147481,,9.160215377807617,
1637488147482,0.21188685297966003,,3.359065055847168
1637488147501,,9.228450775146484,
1637488147502,0.22864626348018646,,3.3243491649627686
1637488147523,,9.251194953918457,3.2082302570343018
1637488147524,0.22625206410884857,,
1637488147541,,9.239224433898926,
1637488147542,0.1999158412218094,,3.1699230670928955
1637488147561,,9.26675796508789,
1637488147562,0.15682020783424377,,3.1723172664642334
1637488147581,,9.35773754119873,
1637488147582,0.09696517139673233,,3.075352191925049
1637488147601,,9.362525939941406,
1637488147602,0.20470423996448517,,3.227383852005005
1637488147621,,9.257181167602539,3.26688814163208
1637488147622,0.15083470940589905,,
1637488147642,,9.14345645904541,3.5410242080688477
1637488147643,0.033518824726343155,,
1637488147661,,9.209297180175781,
1637488147662,0.06703764945268631,,3.3722331523895264
1637488147683,,9.273940086364746,
1637488147684,0.23582886159420013,,3.359065055847168
1637488147701,,9.214085578918457,
1637488147702,0.2717418968677521,,3.4153287410736084
1637488147721,,9.184157371520996,
1637488147722,0.25737667083740234,,3.3925838470458984
1637488147742,0.2777273952960968,9.238027572631836,3.28963303565979
1637488147761,,9.241618156433105,
1637488147762,0.3519476354122162,,3.2824504375457764
1637488147781,,9.238027572631836,
1637488147782,0.4058171808719635,,3.337517261505127
1637488147802,,9.263166427612305,3.400963544845581
1637488147803,0.33997663855552673,,
1637488147821,,9.30386734008789,
1637488147822,0.3232172429561615,,3.4105403423309326
1637488147841,,9.288305282592773,
1637488147842,0.3411737382411957,,3.381809949874878
1637488147862,0.3555389642715454,9.246406555175781,3.2968156337738037
1637488155084,,9.181763648986816,
1637488155085,0.33279404044151306,,3.294421434402466
1637488155100,,9.313444137573242,
1637488155101,0.22505496442317963,,3.0119056701660156
1637488155120,0.23942017555236816,9.329007148742676,3.027467966079712
1637488155140,0.23343466222286224,9.338583946228027,3.02986216545105
1637488155160,0.24660277366638184,9.354146003723145,3.028665065765381
1637488155180,,9.352949142456055,3.0370447635650635
1637488155181,0.24660277366638184,,
1637488155200,,9.345766067504883,
1637488155201,0.24899697303771973,,3.071760892868042
1637488155220,,9.343372344970703,
1637488155221,0.24660277366638184,,3.066972494125366
1637488155242,0.2561795711517334,9.339780807495117,3.0561983585357666
1637488155260,,9.329007148742676,
1637488155261,0.25977087020874023,,3.066972494125366
1637488155280,0.2561795711517334,9.331400871276855,3.068169593811035
1637488155300,,9.315838813781738,3.0597896575927734
1637488155301,0.26096799969673157,,
1637488155320,,9.32661247253418,
1637488155321,0.24420857429504395,,3.068169593811035
1637488155340,0.23702596127986908,9.32661247253418,3.0849289894104004
1637488155360,,9.334992408752441,3.0777463912963867
1637488155361,0.2454056739807129,,
1637488155380,,9.348160743713379,
1637488155381,0.2645592987537384,,3.0801405906677246
1637488155400,,9.348160743713379,
1637488155401,0.2645592987537384,,3.028665065765381
1637488155420,0.23702596127986908,9.333795547485352,3.066972494125366
1637488155440,0.22744916379451752,9.327810287475586,3.0621838569641113
1637488155460,0.23942017555236816,9.32661247253418,3.072957992553711
1637488155480,0.2645592987537384,9.32661247253418,3.1220390796661377
1637488155500,,9.351752281188965,
1637488155501,0.22625206410884857,,3.008314371109009
1637488155520,,9.332598686218262,3.0885202884674072
1637488155521,0.27892449498176575,,
1637488155540,,9.337387084960938,3.1220390796661377
1637488155541,0.2777273952960968,,
1637488155561,0.22744916379451752,9.352949142456055,3.022679567337036
1637488155580,0.24779987335205078,9.330204010009766,3.0107085704803467
1637488155600,,9.30386734008789,3.116053581237793
1637488155601,0.2621650993824005,,
1637488155620,,9.277531623840332,3.1447839736938477
1637488155621,0.2753331959247589,,
1637488155641,0.2717418968677521,9.329007148742676,3.0801405906677246
1637488155660,,9.354146003723145,
1637488155661,0.25977087020874023,,3.0394389629364014
1637488155680,0.2561795711517334,9.35773754119873,3.046621561050415
1637488155701,0.27054479718208313,9.35773754119873,3.0861260890960693
1637488155720,0.2645592987537384,9.344569206237793,3.095702886581421
1637488155740,,9.345766067504883,
1637488155741,0.2406172752380371,,3.0861260890960693
1637488155760,0.24420857429504395,9.348160743713379,3.093308687210083
1637488155780,0.27892449498176575,9.354146003723145,3.025073766708374
1637488155800,,9.364919662475586,
1637488155801,0.2346317619085312,,3.044227361679077
1637488155821,0.2861070930957794,9.345766067504883,3.090914487838745
1637488155841,0.25977087020874023,9.332598686218262,3.066972494125366
1637488155860,,9.334992408752441,3.0597896575927734
1637488155861,0.24181437492370605,,
1637488155881,0.272938996553421,9.32541561126709,3.0837318897247314
1637488155900,,9.336189270019531,
1637488155901,0.2753331959247589,,3.0861260890960693
1637488155921,0.2908954918384552,9.351752281188965,3.07415509223938
1637488155941,0.27413609623908997,9.35773754119873,3.075352191925049
1637488155961,0.2645592987537384,9.346963882446289,3.047818660736084
1637488155980,,9.334992408752441,
1637488155981,0.2561795711517334,,3.0597896575927734
1637488156000,,9.320627212524414,
1637488156001,0.2621650993824005,,3.071760892868042
1637488156020,,9.319430351257324,
1637488156021,0.2693476974964142,,3.093308687210083
1637488156041,,9.32302188873291,3.1016883850097656
1637488156042,0.25737667083740234,,
1637488156061,0.24899697303771973,9.352949142456055,3.064578056335449
1637488156081,,9.352949142456055,3.0609867572784424
1637488156082,0.26096799969673157,,
1637488156101,,9.343372344970703,3.0585925579071045
1637488156102,0.2585737705230713,,
1637488156121,0.2645592987537384,9.308655738830566,3.0777463912963867
1637488156143,,9.317035675048828,3.066972494125366
1637488156144,0.2585737705230713,,
1637488156162,0.24899697303771973,9.331400871276855,3.0573954582214355
1637488156181,,9.35893440246582,3.0633809566497803
1637488156182,0.2454056739807129,,
1637488156201,,9.367314338684082,
1637488156202,0.25977087020874023,,3.0657753944396973
1637488156221,0.2561795711517334,9.379284858703613,2.999934673309326
1637488156242,0.23104046285152435,9.35654067993164,3.0418331623077393
1637488156261,0.24779987335205078,9.313444137573242,3.0609867572784424
1637488156284,0.28730419278144836,9.314641952514648,3.0789434909820557
1637488156303,,9.321824073791504,3.0550012588500977
1637488156304,0.2513911724090576,,
1637488156321,,9.352949142456055,2.9747955799102783
1637488156322,0.19273324310779572,,
1637488156341,0.3172317147254944,9.340977668762207,3.1268274784088135
1637488156361,0.2861070930957794,9.327810287475586,2.9724013805389404
1637488156383,,9.308655738830566,
1637488156384,0.2298433631658554,,3.0550012588500977
1637488156401,0.2561795711517334,9.317035675048828,2.9712042808532715
1637488160083,0.2717418968677521,9.348160743713379,3.0585925579071045
1637488160100,,9.344569206237793,3.0346505641937256
1637488160101,0.27892449498176575,,
1637488160120,,9.349357604980469,
1637488160121,0.28131869435310364,,3.047818660736084
1637488160140,0.28371289372444153,9.348160743713379,3.050212860107422
1637488160160,,9.352949142456055,
1637488160161,0.2825157940387726,,3.0597896575927734
1637488160180,0.30526071786880493,9.345766067504883,3.004723072052002
1637488160200,0.28730419278144836,9.346963882446289,3.0178911685943604
1637488160220,0.28730419278144836,9.339780807495117,3.0526070594787598
1637488160240,,9.342175483703613,
1637488160241,0.3196259140968323,,3.075352191925049
1637488160260,,9.372102737426758,
1637488160261,0.29209262132644653,,3.049015760421753
1637488160282,0.2406172752380371,9.385271072387695,3.0154969692230225
1637488160300,0.28969839215278625,9.354146003723145,3.072957992553711
1637488160320,0.33039984107017517,9.32661247253418,2.942473888397217
1637488160340,0.27054479718208313,9.330204010009766,3.0621838569641113
1637488160360,,9.327810287475586,2.9759926795959473
1637488160361,0.2561795711517334,,
1637488160381,0.3148375153541565,9.32661247253418,3.045424461364746
1637488160401,0.2968810200691223,9.318233489990234,3.116053581237793
1637488160420,,9.331400871276855,
1637488160421,0.3016694188117981,,3.1256303787231445
1637488160440,,9.378087997436523,
1637488160441,0.272938996553421,,3.00711727142334
1637488160460,,9.385271072387695,
1637488160461,0.24899697303771973,,2.9903578758239746
1637488160481,0.27054479718208313,9.350554466247559,3.028665065765381
1637488160501,0.27892449498176575,9.327810287475586,3.0633809566497803
1637488160524,0.2861070930957794,9.32661247253418,3.0777463912963867
1637488160541,0.2777273952960968,9.329007148742676,3.094505786895752
1637488160561,0.27413609623908997,9.349357604980469,3.094505786895752
1637488160583,,9.350554466247559,
1637488160584,0.3076549172401428,,3.0406360626220703
1637488160601,0.25258827209472656,9.349357604980469,3.0561983585357666
1637488160622,,9.338583946228027,
1637488160623,0.2777273952960968,,3.0418331623077393
1637488160640,,9.313444137573242,
1637488160641,0.24899697303771973,,3.0621838569641113
1637488160663,,9.320627212524414,
1637488160664,,,3.0178911685943604
1637488160665,0.2406172752380371,,
1637488160681,0.2513911724090576,9.320627212524414,3.066972494125366
1637488160701,0.2777273952960968,9.355342864990234,3.0609867572784424
1637488160723,,9.373299598693848,
1637488160724,0.2753331959247589,,3.0585925579071045
1637488160741,0.27413609623908997,9.362525939941406,3.046621561050415
1637488160762,,9.354146003723145,
1637488160763,0.2693476974964142,,3.027467966079712
1637488160781,,9.350554466247559,
1637488160782,0.25498247146606445,,3.0346505641937256
1637488160800,,9.334992408752441,
1637488160801,0.2406172752380371,,3.0358476638793945
1637488160821,0.2406172752380371,9.338583946228027,3.0418331623077393
1637488160841,0.23582886159420013,9.345766067504883,3.045424461364746
1637488160864,0.2454056739807129,9.35773754119873,3.027467966079712
1637488160881,0.26336219906806946,9.343372344970703,3.0550012588500977
1637488160903,,9.338583946228027,
1637488160904,0.2645592987537384,,3.047818660736084
1637488160920,,9.333795547485352,
1637488160921,0.2585737705230713,,3.0370447635650635
1637488160941,0.24181437492370605,9.351752281188965,3.0418331623077393
1637488160961,0.243011474609375,9.350554466247559,3.0597896575927734
1637488160984,0.2621650993824005,9.350554466247559,3.043030261993408
1637488161001,0.24899697303771973,9.366117477416992,2.9987375736236572
1637488161020,,9.348160743713379,
1637488161021,0.243011474609375,,3.0358476638793945
1637488161041,0.2693476974964142,9.334992408752441,3.045424461364746
1637488161061,0.2669534981250763,9.349357604980469,3.043030261993408
1637488161083,,9.348160743713379,
1637488161084,0.22505496442317963,,3.0837318897247314
1637488161101,0.2561795711517334,9.35654067993164,2.9700071811676025
1637488161121,0.32680854201316833,9.330204010009766,3.092111587524414
1637488161141,,9.299078941345215,
1637488161142,0.272938996553421,,3.0526070594787598
1637488161161,0.23343466222286224,9.329007148742676,3.025073766708374
1637488161181,0.2693476974964142,9.346963882446289,3.0119056701660156
1637488161202,,9.385271072387695,
1637488161203,0.25977087020874023,,3.0849289894104004
1637488161221,0.2777273952960968,9.36013126373291,3.095702886581421
1637488161241,0.2537853717803955,9.368511199951172,3.00711727142334
1637488161261,0.23822307586669922,9.35654067993164,2.9891607761383057
1637488161281,0.2454056739807129,9.32661247253418,3.044227361679077
1637488161301,,9.319430351257324,3.070563793182373
1637488161321,0.25977087020874023,9.309853553771973,3.0633809566497803
1637488161341,0.2585737705230713,9.339780807495117,3.0789434909820557
1637488161364,0.2561795711517334,9.343372344970703,3.0837318897247314
1637488161381,0.2645592987537384,9.333795547485352,2.9735984802246094
1637488161403,0.23343466222286224,9.327810287475586,3.0825347900390625
1637488161421,0.27413609623908997,9.321824073791504,2.9759926795959473
1637488161444,0.2585737705230713,9.330204010009766,3.071760892868042
1637488161461,0.25019407272338867,9.315838813781738,3.050212860107422
1637488161481,0.2585737705230713,9.338583946228027,3.0550012588500977
1637488161501,0.2513911724090576,9.361329078674316,3.0621838569641113
1637488161521,0.24420857429504395,9.35773754119873,3.0550012588500977
1637488161541,0.24779987335205078,9.346963882446289,3.0526070594787598
1637488161561,0.25977087020874023,9.339780807495117,3.0526070594787598
1637488161581,0.2621650993824005,9.332598686218262,3.0382418632507324
1637488161601,0.25258827209472656,9.334992408752441,3.028665065765381
1637488161621,,9.332598686218262,3.0597896575927734
1637488161622,0.24899697303771973,,
1637488161641,0.24899697303771973,9.331400871276855,3.0370447635650635
1637488161661,0.243011474609375,9.336189270019531,3.025073766708374
1637488161681,0.24660277366638184,9.321824073791504,3.0358476638793945
1637488161701,,9.331400871276855,
1637488161702,0.24660277366638184,,3.045424461364746
1637488161721,0.2454056739807129,9.333795547485352,3.049015760421753
1637488161744,0.24899697303771973,9.330204010009766,3.051409959793091
1637488161761,,9.354146003723145,
1637488161762,0.2561795711517334,,2.9963433742523193
1637488161781,0.24779987335205078,9.338583946228027,3.021482467651367
1637488161801,,9.339780807495117,3.027467966079712
1637488161802,0.24899697303771973,,
1637488161821,0.26575639843940735,9.350554466247559,3.047818660736084
1637488161841,0.22266076505184174,9.36013126373291,3.0131027698516846
1637488161861,,9.344569206237793,
1637488161862,0.2059013396501541,,3.0561983585357666
1637488161884,,9.361329078674316,
1637488161885,0.29568392038345337,,3.1040825843811035
1637488161901,0.3100491166114807,9.338583946228027,3.0370447635650635
1637488161921,0.2190694510936737,9.345766067504883,2.9927520751953125
1637488161941,0.2585737705230713,9.343372344970703,2.9496564865112305
1637488161965,0.26096799969673157,9.35654067993164,2.999934673309326
1637488161981,0.2537853717803955,9.346963882446289,3.072957992553711
1637488162001,0.2645592987537384,9.35654067993164,3.0406360626220703
1637488162024,0.23702596127986908,9.397241592407227,2.96162748336792
1637488162041,0.23343466222286224,9.385271072387695,2.9520506858825684
1637488162061,0.23702596127986908,9.35654067993164,2.981978178024292
1637488162084,0.2717418968677521,9.346963882446289,3.004723072052002
1637488162101,,9.349357604980469,
1637488162102,0.2645592987537384,,2.9987375736236572
1637488162121,0.2513911724090576,9.361329078674316,3.001131772994995
1637488162143,0.26096799969673157,9.373299598693848,3.0142998695373535
1637488162161,0.2825157940387726,9.375694274902344,2.9484593868255615
1637488173083,,9.363722801208496,
1637488173084,0.2513911724090576,9.352949142456055,3.0334534645080566
1637488173100,,9.379284858703613,2.9759926795959473
1637488173101,0.2513911724090576,,
1637488173120,,9.391256332397461,
1637488173121,0.2621650993824005,,2.964021682739258
1637488173141,0.25977087020874023,9.372102737426758,2.9652187824249268
1637488173160,,9.35773754119873,
1637488173161,0.25258827209472656,,2.9724013805389404
1637488173180,0.25019407272338867,9.35654067993164,2.9879636764526367
1637488173200,,9.35893440246582,
1637488173201,0.25019407272338867,,2.9759926795959473
1637488173220,,9.372102737426758,
1637488173221,0.23942017555236816,,2.96162748336792
1637488173240,,9.35893440246582,
1637488173241,0.24779987335205078,,2.9688100814819336
1637488173260,,9.350554466247559,
1637488173261,0.25258827209472656,,3.004723072052002
1637488173280,0.24420857429504395,9.340977668762207,3.001131772994995
1637488173300,0.2406172752380371,9.349357604980469,3.002328872680664
1637488173320,0.24899697303771973,9.36013126373291,2.940079689025879
1637488173340,,9.35893440246582,2.9759926795959473
1637488173341,0.21787235140800476,,
1637488173360,,9.320627212524414,2.980781078338623
1637488173361,0.24779987335205078,,
1637488173380,,9.311050415039062,
1637488173381,0.26575639843940735,,2.9915549755096436
1637488173400,0.2322375625371933,9.306262016296387,2.9759926795959473
1637488173420,,9.309853553771973,
1637488173421,0.21667525172233582,,3.0190882682800293
1637488173440,,9.327810287475586,2.895787000656128
1637488173441,0.23702596127986908,,
1637488173460,,9.32302188873291,
1637488173461,0.2513911724090576,,2.918531894683838
1637488173481,0.2190694510936737,9.346963882446289,2.9735984802246094
1637488173500,,9.368511199951172,
1637488173501,0.23942017555236816,,2.9305028915405273
1637488173520,,9.388861656188965,
1637488173521,0.2513911724090576,,2.958036184310913
1637488173541,0.2454056739807129,9.370905876159668,3.0346505641937256
1637488173560,,9.354146003723145,3.0178911685943604
1637488173561,0.24660277366638184,,
1637488173580,,9.38048267364502,
1637488173581,0.22864626348018646,,2.9448680877685547
1637488173600,,9.376891136169434,
1637488173601,0.2214636504650116,,2.9281086921691895
1637488173620,,9.351752281188965,
1637488173621,0.2346317619085312,,2.9496564865112305
1637488173640,,9.343372344970703,
1637488173641,0.23822307586669922,,2.955641984939575
1637488173660,,9.364919662475586,
1637488173661,0.23104046285152435,,2.9724013805389404
1637488173680,,9.38048267364502,
1637488173681,0.22864626348018646,,2.9688100814819336
1637488173701,0.23942017555236816,9.390059471130371,2.9915549755096436
1637488173720,,9.379284858703613,
1637488173721,0.28131869435310364,,2.9101521968841553
1637488173741,0.2669534981250763,9.368511199951172,2.9664158821105957
1637488173761,,9.373299598693848,2.8886044025421143
1637488173762,0.2885012924671173,,
1637488173781,,9.36013126373291,2.9891607761383057
1637488173782,0.272938996553421,,
1637488173800,,9.336189270019531,
1637488173801,0.24420857429504395,,2.9436709880828857
1637488173821,0.2621650993824005,9.368511199951172,2.9724013805389404
1637488173840,,9.388861656188965,
1637488173841,0.27413609623908997,,2.9747955799102783
1637488173860,,9.387664794921875,
1637488173861,0.23582886159420013,,2.956839084625244
1637488173880,,9.386467933654785,
1637488173881,0.24779987335205078,,2.9221231937408447
1637488173900,,9.374496459960938,
1637488173901,0.2753331959247589,,2.9496564865112305
1637488173920,,9.366117477416992,2.9496564865112305
1637488173921,0.30286651849746704,,
1637488173940,,9.351752281188965,
1637488173941,0.3016694188117981,,2.962824583053589
1637488173960,0.2861070930957794,9.342175483703613,2.9652187824249268
1637488173980,,9.370905876159668,
1637488173981,0.2621650993824005,,2.9496564865112305
1637488174000,0.24779987335205078,9.38048267364502,2.940079689025879
1637488174020,,9.39245319366455,2.9664158821105957
1637488174021,0.2585737705230713,,
1637488174040,,9.3828763961792,
1637488174041,0.2537853717803955,,2.942473888397217
1637488174060,0.272938996553421,9.3828763961792,2.9448680877685547
1637488174080,,9.373299598693848,2.892195701599121
1637488174081,0.2801215946674347,,
1637488174100,,9.35893440246582,
1637488174101,0.2561795711517334,,2.9328970909118652
1637488174120,,9.343372344970703,
1637488174121,0.26815059781074524,,2.962824583053589
1637488174140,,9.35654067993164,
1637488174141,0.28969839215278625,,2.9712042808532715
1637488174160,0.27653029561042786,9.38048267364502,2.9484593868255615
1637488174180,,9.398438453674316,2.8814218044281006
1637488174181,0.21188685297966003,,
1637488174200,,9.375694274902344,3.002328872680664
1637488174201,0.24181437492370605,,
1637488174220,,9.35654067993164,
1637488174221,0.2861070930957794,,2.850297212600708
1637488174241,0.25258827209472656,9.390059471130371,2.9448680877685547
1637488174260,,9.370905876159668,2.8790276050567627
1637488174261,0.23822307586669922,,
1637488174280,,9.349357604980469,
1637488174281,0.2992752194404602,,2.9257144927978516
1637488174301,0.2968810200691223,9.342175483703613,2.9879636764526367
1637488174320,,9.38167953491211,
1637488174321,0.2885012924671173,,2.960430383682251
1637488174340,,9.409213066101074,
1637488174341,,,2.892195701599121
1637488174342,0.26575639843940735,,
1637488174360,,9.405621528625488,2.9089550971984863
1637488174361,0.25737667083740234,,
1637488174380,,9.39365005493164,
1637488174381,0.2537853717803955,,2.9221231937408447
1637488174400,0.2621650993824005,9.372102737426758,2.935291290283203
1637488174420,,9.367314338684082,
1637488174421,0.25977087020874023,,2.956839084625244
1637488174440,,9.369708061218262,
1637488174441,0.2717418968677521,,2.9496564865112305
1637488174460,,9.3828763961792,
1637488174461,0.2669534981250763,,2.940079689025879
1637488174480,0.2992752194404602,9.391256332397461,2.8886044025421143
1637488174500,,9.394847869873047,
1637488174501,0.2645592987537384,,2.941276788711548
1637488174520,,9.374496459960938,
1637488174521,0.2932897210121155,,2.9532477855682373
1637488174540,0.2825157940387726,9.36013126373291,2.9544448852539062
1637488174560,,9.337387084960938,2.9221231937408447
1637488174561,0.2585737705230713,,
1637488174580,0.27054479718208313,9.351752281188965,2.9508535861968994
1637488174600,0.29568392038345337,9.364919662475586,2.942473888397217
1637488174620,,9.378087997436523,
1637488174621,0.2968810200691223,,2.9508535861968994
1637488174640,0.2849099934101105,9.375694274902344,2.942473888397217
1637488174660,,9.374496459960938,
1637488174661,0.28371289372444153,,2.958036184310913
1637488174681,0.2885012924671173,9.366117477416992,2.936488389968872
1637488174701,0.2777273952960968,9.352949142456055,2.96162748336792
1637488174721,0.27054479718208313,9.348160743713379,2.9484593868255615
1637488174741,0.26336219906806946,9.363722801208496,2.9257144927978516
1637488174760,,9.372102737426758,
1637488174761,0.2645592987537384,,2.9293057918548584
1637488174781,,9.362525939941406,
1637488174782,0.2585737705230713,,2.9328970909118652
1637488174804,0.26336219906806946,9.364919662475586,2.960430383682251
1637488174821,0.26815059781074524,9.370905876159668,2.959233283996582
1637488179084,0.27653029561042786,9.364919662475586,2.962824583053589
1637488179100,,9.370905876159668,2.89339280128479
1637488179101,0.25977087020874023,,
1637488179120,,9.339780807495117,
1637488179121,0.3064578175544739,,3.005920171737671
1637488179140,0.25977087020874023,9.337387084960938,2.9293057918548584
1637488179160,0.2106897532939911,9.370905876159668,2.9233202934265137
1637488179180,,9.364919662475586,2.9161376953125
1637488179181,0.2406172752380371,,
1637488179200,,9.391256332397461,
1637488179201,0.2346317619085312,,2.9891607761383057
1637488179221,0.23942017555236816,9.370905876159668,3.0107085704803467
1637488179240,,9.38048267364502,
1637488179241,0.22505496442317963,,2.9077579975128174
1637488179260,,9.373299598693848,2.896984100341797
1637488179261,0.2059013396501541,,
1637488179280,0.22026655077934265,9.351752281188965,2.9221231937408447
1637488179300,0.2513911724090576,9.345766067504883,2.9484593868255615
1637488179320,0.24779987335205078,9.363722801208496,2.9484593868255615
1637488179340,,9.38048267364502,2.9328970909118652
1637488179341,0.24181437492370605,,
1637488179360,,9.405621528625488,
1637488179361,0.243011474609375,,2.960430383682251
1637488179380,0.23702596127986908,9.388861656188965,2.9544448852539062
1637488179400,0.2298433631658554,9.38167953491211,3.027467966079712
1637488179420,,9.363722801208496,
1637488179421,0.22266076505184174,,2.9101521968841553
1637488179440,0.24181437492370605,9.368511199951172,2.892195701599121
1637488179460,,9.368511199951172,
1637488179461,0.23582886159420013,,2.958036184310913
1637488179480,,9.354146003723145,
1637488179481,0.22505496442317963,,2.9089550971984863
1637488179501,0.24660277366638184,9.369708061218262,2.9520506858825684
1637488179520,0.2454056739807129,9.394847869873047,2.93888258934021
1637488179540,,9.39365005493164,
1637488179541,0.23942017555236816,,2.9233202934265137
1637488179560,,9.396044731140137,2.9005753993988037
1637488179561,0.243011474609375,,
1637488179580,0.243011474609375,9.38048267364502,2.9065608978271484
1637488179601,0.2406172752380371,9.388861656188965,2.9065608978271484
1637488179620,,9.372102737426758,
1637488179621,0.23822307586669922,,2.917334794998169
1637488179640,,9.390059471130371,
1637488179641,0.24420857429504395,,2.890998601913452
1637488179660,,9.403226852416992,2.89339280128479
1637488179661,0.22744916379451752,,
1637488179680,,9.39365005493164,2.9077579975128174
1637488179681,0.24420857429504395,,
1637488179702,0.2406172752380371,9.387664794921875,2.912546396255493
1637488179720,,9.38167953491211,
1637488179721,0.24660277366638184,,2.898181200027466
1637488179741,0.25498247146606445,9.385271072387695,2.8862102031707764
1637488179760,,9.39365005493164,
1637488179761,0.26815059781074524,,2.9053637981414795
1637488179781,,9.3828763961792,
1637488179800,,9.379284858703613,
1637488179801,0.28371289372444153,,2.8598740100860596
1637488179820,,9.397241592407227,
1637488179821,0.24420857429504395,,2.786850690841675
1637488179841,0.23104046285152435,9.409213066101074,2.8802247047424316
1637488179860,,9.387664794921875,
1637488179861,0.26815059781074524,,2.9029695987701416
1637488179881,0.2825157940387726,9.375694274902344,2.935291290283203
1637488179900,,9.366117477416992,
1637488179901,0.24899697303771973,,2.9712042808532715
1637488179920,,9.390059471130371,2.8886044025421143
1637488179921,0.20231004059314728,,
1637488179941,0.2717418968677521,9.35654067993164,3.0609867572784424
1637488179960,,9.36013126373291,
1637488179961,0.2801215946674347,,2.940079689025879
1637488179981,0.20470423996448517,9.3828763961792,2.955641984939575
1637488180000,0.21787235140800476,9.354146003723145,2.9269115924835205
1637488180021,0.22385786473751068,9.333795547485352,2.9747955799102783
1637488180041,,9.319430351257324,3.026270866394043
1637488180042,0.2059013396501541,,
1637488180060,,9.348160743713379,
1637488180061,0.21667525172233582,,2.9903578758239746
1637488180081,,9.384073257446289,
1637488180082,0.21787235140800476,,2.934094190597534
1637488180101,0.21308395266532898,9.384073257446289,2.9233202934265137
1637488180122,,9.384073257446289,
1637488180123,0.20709845423698425,,2.9532477855682373
1637488180141,0.22744916379451752,9.362525939941406,2.960430383682251
1637488180161,0.22385786473751068,9.35893440246582,2.9700071811676025
1637488180181,0.22505496442317963,9.355342864990234,2.978386878967285
1637488180203,0.22625206410884857,9.36013126373291,2.981978178024292
1637488180221,0.2621650993824005,9.368511199951172,2.912546396255493
1637488180241,0.22266076505184174,9.364919662475586,2.958036184310913
1637488180261,0.2585737705230713,9.361329078674316,2.977189779281616
1637488180281,0.2298433631658554,9.348160743713379,2.9867665767669678
1637488180300,,9.354146003723145,
1637488180301,0.20470423996448517,,2.9448680877685547
1637488180320,,9.364919662475586,
1637488180321,0.2406172752380371,,2.9735984802246094
1637488180340,,9.352949142456055,
1637488180341,0.24420857429504395,,2.959233283996582
1637488180361,0.23942017555236816,9.374496459960938,2.9508535861968994
1637488180380,,9.38048267364502,
1637488180381,0.2322375625371933,,2.940079689025879
1637488180400,,9.385271072387695,
1637488180401,0.22744916379451752,,2.9305028915405273
1637488180420,,9.370905876159668,
1637488180421,0.22505496442317963,,2.9245173931121826
1637488180440,,9.362525939941406,2.960430383682251
1637488180441,0.23104046285152435,,
1637488180460,,9.35773754119873,
1637488180461,0.24181437492370605,,2.962824583053589
1637488180480,,9.366117477416992,2.9448680877685547
1637488180481,0.2406172752380371,,
1637488180503,0.2454056739807129,9.367314338684082,2.93888258934021
1637488180521,0.24420857429504395,9.362525939941406,2.9508535861968994
1637488180540,,9.35773754119873,
1637488180541,0.25498247146606445,,2.9448680877685547
1637488180561,0.25019407272338867,9.370905876159668,2.93888258934021
1637488180580,,9.364919662475586,2.9281086921691895
1637488180581,0.2513911724090576,,
1637488180600,,9.386467933654785,2.9484593868255615
1637488180601,0.25019407272338867,,
1637488180620,0.24660277366638184,9.396044731140137,2.9544448852539062
1637488180640,0.24899697303771973,9.409213066101074,2.958036184310913
1637488180660,,9.403226852416992,
1637488180661,0.26575639843940735,,2.9676129817962646
1637488180680,,9.390059471130371,
1637488180681,0.25498247146606445,,2.9065608978271484
1637488180700,,9.374496459960938,
1637488180701,0.23104046285152435,,2.9460651874542236
1637488180720,,9.36013126373291,
1637488180721,0.22744916379451752,,2.935291290283203
1637488180740,0.24899697303771973,9.352949142456055,2.942473888397217
1637488180760,0.23343466222286224,9.348160743713379,2.934094190597534
1637488180781,0.1951274424791336,9.372102737426758,2.874239206314087
1637488180800,,9.379284858703613,2.9747955799102783
1637488180801,0.23702596127986908,,
1637488180820,,9.363722801208496,2.87064790725708
1637488180821,0.26815059781074524,,
1637488180841,0.20709845423698425,9.379284858703613,2.955641984939575
1637488180861,0.2346317619085312,9.35893440246582,2.8814218044281006
1637488180881,,9.355342864990234,
1637488180882,0.2561795711517334,,2.934094190597534
1637488180904,,9.351752281188965,
1637488180905,0.2561795711517334,,2.979583978652954
1637488180924,,9.384073257446289,
1637488180925,0.2585737705230713,,2.9293057918548584
1637488180941,0.2454056739807129,9.423578262329102,2.889801502227783
1637488180961,0.21547815203666687,9.406818389892578,2.8814218044281006
1637488180983,,9.373299598693848,
1637488180984,0.22505496442317963,,2.894589900970459
1637488181004,0.23942017555236816,9.361329078674316,2.9005753993988037
1637488181022,,9.367314338684082,2.918531894683838
1637488181023,0.22864626348018646,,
1637488181040,,9.3828763961792,
1637488181041,0.24779987335205078,,2.9436709880828857
1637488181061,0.272938996553421,9.39245319366455,2.9676129817962646
1637488181081,0.28730419278144836,9.399636268615723,2.8646624088287354
1637488181101,0.23942017555236816,9.404424667358398,2.934094190597534
1637488181122,,9.366117477416992,
1637488181123,0.2669534981250763,,2.889801502227783
1637488181141,0.2513911724090576,9.354146003723145,2.93888258934021
1637488181161,0.21787235140800476,9.350554466247559,2.9017724990844727
1637488181181,0.24420857429504395,9.350554466247559,2.9496564865112305
1637488181201,0.2537853717803955,9.367314338684082,2.9448680877685547
1637488181221,,9.390059471130371,2.934094190597534
1637488181222,0.2537853717803955,,
1637488181241,0.25258827209472656,9.385271072387695,2.9077579975128174
1637488181264,,9.3828763961792,2.9077579975128174
1637488181265,0.23942017555236816,,
1637488181281,,9.35654067993164,
1637488181282,0.2322375625371933,,2.9245173931121826
1637488181302,,9.352949142456055,
1637488181303,0.23582886159420013,,2.919728994369507
1637488181324,0.23343466222286224,9.368511199951172,2.9101521968841553
1637488181341,,9.372102737426758,
1637488181342,0.23942017555236816,,2.9041666984558105
1637488181360,,9.388861656188965,
1637488181361,0.22864626348018646,,2.89339280128479
1637488181382,,9.3828763961792,
1637488181383,0.25019407272338867,,2.9017724990844727
1637488181401,0.23942017555236816,9.385271072387695,2.919728994369507
1637488181423,0.24899697303771973,9.386467933654785,2.911349296569824
1637488181441,,9.369708061218262,
1637488181442,0.24899697303771973,,2.9221231937408447
1637488181461,,9.378087997436523,
1637488181462,0.25498247146606445,,2.9316999912261963
1637488181484,,9.367314338684082,2.8886044025421143
1637488181485,0.25737667083740234,,
1637488181501,0.25019407272338867,9.354146003723145,2.890998601913452
1637488181521,0.2346317619085312,9.339780807495117,2.9233202934265137
1637488181541,0.2585737705230713,9.340977668762207,2.9233202934265137
1637488181561,0.23702596127986908,9.352949142456055,2.894589900970459
1637488181582,,9.336189270019531,
1637488181583,0.22505496442317963,,2.93888258934021
1637488181601,,9.36013126373291,
1637488181602,0.21428105235099792,,2.8107926845550537
1637488181622,0.32202014327049255,9.332598686218262,3.022679567337036
1637488181643,,9.320627212524414,2.9161376953125
1637488181644,0.27892449498176575,,
1637488181661,0.20231004059314728,9.361329078674316,2.875436305999756
1637488181681,0.2322375625371933,9.362525939941406,2.871845006942749
1637488181701,,9.405621528625488,
1637488181702,0.20949265360832214,,2.9005753993988037
1637488183083,0.22266076505184174,9.38048267364502,2.9700071811676025
1637488183100,,9.35893440246582,2.941276788711548
1637488183101,0.27653029561042786,,
1637488183139,,9.362525939941406,
1637488183140,0.2585737705230713,,2.9496564865112305
1637488183144,0.2825157940387726,9.368511199951172,2.892195701599121
1637488183160,0.2849099934101105,9.379284858703613,2.8886044025421143
1637488183180,0.27653029561042786,9.363722801208496,2.9448680877685547
1637488183200,,9.369708061218262,
1637488183201,0.28131869435310364,,2.917334794998169
1637488183221,0.29209262132644653,9.376891136169434,2.9269115924835205
1637488183240,,9.35773754119873,
1637488183241,0.30047231912612915,,2.9676129817962646
1637488183262,0.2717418968677521,9.374496459960938,2.979583978652954
1637488183280,0.3016694188117981,9.374496459960938,2.8826189041137695
1637488183301,0.24660277366638184,9.418789863586426,2.96162748336792
1637488183323,0.243011474609375,9.419986724853516,2.8586769104003906
1637488183340,0.2693476974964142,9.378087997436523,2.9281086921691895
1637488183361,,9.351752281188965,2.985569477081299
1637488183362,0.2669534981250763,,
1637488183381,0.2621650993824005,9.346963882446289,2.9735984802246094
1637488183403,,9.403226852416992,2.890998601913452
1637488183404,0.2717418968677521,,
1637488183421,0.26096799969673157,9.419986724853516,2.8814218044281006
1637488183441,0.2537853717803955,9.387664794921875,2.895787000656128
1637488183461,0.26815059781074524,9.36013126373291,2.9161376953125
1637488183481,0.25737667083740234,9.35893440246582,2.918531894683838
1637488183501,0.24779987335205078,9.354146003723145,2.913743495941162
1637488183522,0.25019407272338867,9.364919662475586,2.959233283996582
1637488183541,0.26815059781074524,9.378087997436523,2.9269115924835205
1637488183561,0.25498247146606445,9.397241592407227,2.9305028915405273
1637488183581,,9.39245319366455,
1637488183582,0.2849099934101105,,2.911349296569824
1637488183600,,9.396044731140137,
1637488183601,0.2561795711517334,,2.940079689025879
1637488183623,,9.368511199951172,
1637488183624,0.24779987335205078,,2.8814218044281006
1637488183641,0.27054479718208313,9.368511199951172,2.8993782997131348
1637488183661,0.2861070930957794,9.38048267364502,2.89339280128479
1637488183681,,9.38167953491211,2.890998601913452
1637488183682,0.2753331959247589,,
1637488183700,,9.399636268615723,
1637488183701,0.2753331959247589,,2.8838160037994385
1637488183723,,9.394847869873047,
1637488183724,0.2777273952960968,,2.8850131034851074
1637488183741,,9.397241592407227,2.8802247047424316
1637488183742,0.27892449498176575,,
1637488183761,,9.385271072387695,2.9053637981414795
1637488183762,0.2717418968677521,,
1637488183781,0.272938996553421,9.403226852416992,2.89339280128479
1637488183803,,9.404424667358398,
1637488183804,0.26336219906806946,,2.892195701599121
1637488183821,,9.379284858703613,
1637488183822,0.25019407272338867,,2.8850131034851074
1637488183840,,9.391256332397461,
1637488183841,0.23822307586669922,,2.8993782997131348
1637488183862,,9.369708061218262,
1637488183863,0.25498247146606445,,2.911349296569824
1637488183881,0.25977087020874023,9.375694274902344,2.898181200027466
1637488183901,0.26575639843940735,9.39245319366455,2.855085611343384
1637488183921,0.24181437492370605,9.397241592407227,2.892195701599121
1637488183941,0.26815059781074524,9.372102737426758,2.9089550971984863
1637488183961,0.28131869435310364,9.386467933654785,2.914940595626831
1637488183981,0.2561795711517334,9.391256332397461,2.9029695987701416
1637488184001,0.2059013396501541,9.374496459960938,2.913743495941162
1637488184021,0.2106897532939911,9.384073257446289,2.7964274883270264
1637488184041,0.29209262132644653,9.362525939941406,2.964021682739258
1637488184061,0.25258827209472656,9.333795547485352,2.9496564865112305
1637488184081,0.22385786473751068,9.361329078674316,2.876633405685425
1637488184101,0.2693476974964142,9.38167953491211,2.892195701599121
1637488184120,,9.386467933654785,
1637488184121,0.2513911724090576,,2.9652187824249268
1637488184141,0.25258827209472656,9.373299598693848,2.9328970909118652
1637488184164,,9.39365005493164,2.871845006942749
1637488184165,0.2214636504650116,,
1637488184181,,9.364919662475586,2.8862102031707764
1637488184182,0.21188685297966003,,
1637488184201,0.21308395266532898,9.339780807495117,2.9316999912261963
1637488184221,0.23822307586669922,9.332598686218262,2.955641984939575
1637488184241,0.24779987335205078,9.340977668762207,2.9544448852539062
1637488184262,0.25737667083740234,9.364919662475586,2.936488389968872
1637488184281,0.24420857429504395,9.374496459960938,2.940079689025879
1637488184300,,9.355342864990234,
1637488184301,0.27413609623908997,,2.871845006942749
1637488184321,0.2454056739807129,9.345766067504883,2.9269115924835205
1637488184341,0.2585737705230713,9.338583946228027,2.8586769104003906
1637488184364,0.2346317619085312,9.349357604980469,2.9460651874542236
1637488184381,0.22625206410884857,9.35773754119873,2.9436709880828857
1637488184401,0.243011474609375,9.375694274902344,2.93888258934021
1637488184420,,9.408015251159668,
1637488184421,0.243011474609375,,2.936488389968872
1637488184441,0.23582886159420013,9.396044731140137,2.935291290283203
1637488184461,0.24779987335205078,9.376891136169434,2.9245173931121826
1637488184481,,9.361329078674316,2.9233202934265137
1637488184503,0.23822307586669922,9.35773754119873,2.9065608978271484
1637488184521,,9.35773754119873,
1637488184522,0.2454056739807129,,2.912546396255493
1637488184541,0.23702596127986908,9.374496459960938,2.9305028915405273
1637488184561,0.24899697303771973,9.379284858703613,2.9161376953125
1637488184583,,9.376891136169434,2.895787000656128
1637488184584,0.24420857429504395,,
1637488184603,0.24779987335205078,9.374496459960938,2.913743495941162
1637488184621,0.24181437492370605,9.374496459960938,2.9233202934265137
1637488184641,0.26336219906806946,9.385271072387695,2.9041666984558105
1637488184661,0.25737667083740234,9.386467933654785,2.871845006942749
1637488184681,0.23942017555236816,9.378087997436523,2.9305028915405273
1637488184701,,9.38048267364502,
1637488184702,0.2585737705230713,,2.917334794998169
1637488184721,0.2537853717803955,9.385271072387695,2.9017724990844727
1637488184742,0.2298433631658554,9.373299598693848,2.935291290283203
1637488184761,0.25019407272338867,9.3828763961792,2.853888511657715
1637488184781,0.30286651849746704,9.345766067504883,2.9305028915405273
1637488184804,0.27054479718208313,9.362525939941406,2.9484593868255615
1637488184821,0.22385786473751068,9.403226852416992,2.8455088138580322
1637488184841,0.2825157940387726,9.3828763961792,2.874239206314087
1637488184861,0.2645592987537384,9.378087997436523,2.9448680877685547
1637488184881,,9.35773754119873,
1637488184882,0.2585737705230713,,2.9676129817962646
1637488184900,,9.403226852416992,
1637488184901,0.25737667083740234,,2.9017724990844727
1637488184922,,9.421183586120605,
1637488184923,0.24420857429504395,,2.849100112915039
1637488184941,,9.403226852416992,
1637488184942,0.243011474609375,,2.8574798107147217
1637488184960,,9.378087997436523,
1637488184961,0.24660277366638184,,2.889801502227783
1637488184981,0.26575639843940735,9.362525939941406,2.9269115924835205
1637488185001,0.2621650993824005,9.3828763961792,2.914940595626831
1637488185024,0.2753331959247589,9.384073257446289,2.9305028915405273
1637488185041,,9.390059471130371,
1637488185042,0.30286651849746704,,2.8574798107147217
1637488185061,0.2585737705230713,9.386467933654785,2.941276788711548
1637488185083,0.28371289372444153,9.387664794921875,2.8586769104003906
1637488185103,,9.373299598693848,
1637488185104,0.304063618183136,,2.956839084625244
1637488185123,0.2669534981250763,9.363722801208496,2.9101521968841553
1637488185141,,9.369708061218262,
1637488185142,0.27892449498176575,,2.9269115924835205
1637488185162,,9.379284858703613,
1637488185163,0.28371289372444153,,2.942473888397217
1637488185181,0.27892449498176575,9.38048267364502,2.912546396255493
1637488185201,0.26575639843940735,9.388861656188965,2.911349296569824
1637488185221,0.25977087020874023,9.400833129882812,2.9089550971984863
1637488185241,,9.390059471130371,
1637488185242,0.2621650993824005,,2.9101521968841553
1637488185261,0.2621650993824005,9.374496459960938,2.919728994369507
1637488185281,,9.36013126373291,
1637488185282,0.25258827209472656,,2.9281086921691895
1637488185301,0.24420857429504395,9.374496459960938,2.917334794998169
1637488185321,0.2585737705230713,9.38167953491211,2.9257144927978516
1637488185341,0.2645592987537384,9.38167953491211,2.9245173931121826
1637488185360,,9.3828763961792,
1637488185361,0.26575639843940735,,2.9328970909118652
1637488185381,0.2693476974964142,9.378087997436523,2.9233202934265137
1637488185401,0.2621650993824005,9.373299598693848,2.918531894683838
1637488185420,,9.361329078674316,2.920926094055176
1637488185421,0.2669534981250763,,
1637488185440,,9.372102737426758,
1637488185441,0.2693476974964142,,2.875436305999756
1637488185460,0.2513911724090576,9.38167953491211,2.9017724990844727
1637488185481,,9.361329078674316,
1637488185482,0.25977087020874023,,2.936488389968872
1637488185503,0.2693476974964142,9.367314338684082,2.917334794998169
1637488185523,,9.386467933654785,2.9496564865112305
1637488185524,0.28371289372444153,,
1637488185541,0.25019407272338867,9.390059471130371,2.846705913543701
1637488185560,,9.349357604980469,
1637488185561,0.3016694188117981,,2.9724013805389404
1637488185581,,9.361329078674316,2.9532477855682373
1637488185582,0.30047231912612915,,
1637488185601,0.2214636504650116,9.399636268615723,2.876633405685425
1637488185621,0.25258827209472656,9.391256332397461,2.8658595085144043
1637488185643,,9.388861656188965,
1637488185644,0.26096799969673157,,2.959233283996582
1637488185661,,9.36013126373291,3.00711727142334
1637488185662,0.2669534981250763,,
1637488185680,,9.406818389892578,
1637488185681,0.27054479718208313,,2.941276788711548
1637488185701,0.2513911724090576,9.434351921081543,2.8850131034851074
1637488185721,0.2346317619085312,9.41759204864502,2.890998601913452
1637488185741,0.23942017555236816,9.3828763961792,2.9281086921691895
1637488185763,,9.375694274902344,
1637488185764,0.2645592987537384,,2.920926094055176
1637488185780,,9.385271072387695,
1637488185781,0.272938996553421,,2.9496564865112305
1637488185803,,9.370905876159668,
1637488185804,0.22625206410884857,,3.00711727142334
1637488185820,,9.349357604980469,
1637488185821,0.21308395266532898,,2.9484593868255615
1637488185840,,9.379284858703613,
1637488185841,0.2190694510936737,,2.9532477855682373
1637488185861,0.23104046285152435,9.394847869873047,2.849100112915039
1637488185881,,9.403226852416992,
1637488185882,0.272938996553421,,2.9017724990844727
1637488185900,,9.38048267364502,
1637488185901,0.2693476974964142,,2.8658595085144043
1637488185921,,9.369708061218262,
1637488185922,0.2885012924671173,,2.9053637981414795
1637488185941,0.304063618183136,9.367314338684082,2.912546396255493
1637488185962,,9.38048267364502,
1637488185963,0.2908954918384552,,2.9065608978271484
1637488185981,0.26575639843940735,9.400833129882812,2.895787000656128
1637488186001,0.27054479718208313,9.41400146484375,2.8802247047424316
1637488186021,0.27892449498176575,9.419986724853516,2.8850131034851074
1637488186040,,9.397241592407227,2.8814218044281006
1637488186041,0.26575639843940735,,
1637488186060,,9.372102737426758,
1637488186061,0.2513911724090576,,2.9017724990844727
1637488186081,,9.372102737426758,2.892195701599121
1637488186082,0.2561795711517334,,
1637488186100,,9.3828763961792,
1637488186101,0.25019407272338867,,2.8862102031707764
1637488186120,,9.410409927368164,
1637488186121,0.2406172752380371,,2.8802247047424316
1637488186140,,9.406818389892578,
1637488186141,0.24420857429504395,,2.890998601913452
1637488186160,,9.39365005493164,2.9017724990844727
1637488186161,0.2406172752380371,,
1637488186181,,9.391256332397461,
1637488186182,0.2346317619085312,,2.8850131034851074
1637488186201,0.22505496442317963,9.394847869873047,2.896984100341797
1637488186220,,9.385271072387695,
1637488186221,0.2346317619085312,,2.873042106628418
1637488186241,0.22385786473751068,9.379284858703613,2.8359320163726807
1637488186261,0.2082955539226532,9.387664794921875,2.8862102031707764
1637488186280,,9.366117477416992,2.898181200027466
1637488186281,0.23343466222286224,,
1637488186300,,9.376891136169434,
1637488186301,0.25498247146606445,,2.9161376953125
1637488186321,0.21308395266532898,9.396044731140137,2.8862102031707764
1637488186341,0.19153612852096558,9.394847869873047,2.9245173931121826
1637488186361,0.26336219906806946,9.388861656188965,2.8814218044281006
1637488186381,0.27054479718208313,9.361329078674316,2.8598740100860596
1637488186401,0.2082955539226532,9.376891136169434,2.8826189041137695
1637488186423,0.23822307586669922,9.369708061218262,2.849100112915039
1637488186440,,9.409213066101074,
1637488186441,0.23942017555236816,,2.9077579975128174
1637488186460,,9.379284858703613,
1637488186461,0.23343466222286224,,2.9664158821105957
1637488186483,,9.3828763961792,2.9041666984558105
1637488186484,0.243011474609375,,
1637488186501,0.19033902883529663,9.384073257446289,2.8622682094573975
1637488186521,0.19153612852096558,9.345766067504883,2.9065608978271484
1637488186541,,9.32661247253418,
1637488186542,0.1975216418504715,,2.940079689025879
1637488186561,0.2214636504650116,9.330204010009766,2.942473888397217
1637488186581,0.22625206410884857,9.346963882446289,2.9233202934265137
1637488186601,0.2454056739807129,9.363722801208496,2.9101521968841553
1637488186623,,9.372102737426758,2.9245173931121826
1637488186624,0.23104046285152435,,
1637488186641,,9.35893440246582,
1637488186642,0.26336219906806946,,2.8634653091430664
1637488186660,,9.355342864990234,
1637488186661,0.22266076505184174,,2.9029695987701416
1637488186683,,9.370905876159668,
1637488186684,0.23582886159420013,,2.894589900970459
1637488186703,,9.354146003723145,2.9496564865112305
1637488186704,0.23343466222286224,,
1637488186723,,9.355342864990234,
1637488186724,0.23822307586669922,,2.9221231937408447
1637488186741,,9.38048267364502,
1637488186742,0.24660277366638184,,2.955641984939575
1637488186761,0.2346317619085312,9.376891136169434,2.936488389968872
1637488186781,0.2322375625371933,9.38167953491211,2.9316999912261963
1637488186801,0.2346317619085312,9.374496459960938,2.9161376953125
1637488186821,0.243011474609375,9.368511199951172,2.898181200027466
1637488186842,0.22744916379451752,9.38048267364502,2.9029695987701416
1637488186863,,9.366117477416992,
1637488186864,0.2322375625371933,,2.8993782997131348
1637488186883,,9.38048267364502,
1637488186884,0.22625206410884857,,2.9065608978271484
1637488186902,0.23343466222286224,9.391256332397461,2.9053637981414795
1637488186921,,9.385271072387695,
1637488186922,0.22744916379451752,,2.898181200027466
1637488186941,0.23822307586669922,9.373299598693848,2.9041666984558105
1637488186961,0.2346317619085312,9.372102737426758,2.917334794998169
1637488186981,0.23822307586669922,9.373299598693848,2.9293057918548584
1637488187001,0.22505496442317963,9.388861656188965,2.918531894683838
1637488187021,0.243011474609375,9.388861656188965,2.892195701599121
1637488187041,0.2346317619085312,9.398438453674316,2.8646624088287354
1637488187061,,9.367314338684082,
1637488187062,0.22864626348018646,,2.9029695987701416
1637488187081,0.25258827209472656,9.370905876159668,2.9005753993988037
1637488187101,0.26815059781074524,9.3828763961792,2.914940595626831
1637488187124,0.2454056739807129,9.390059471130371,2.898181200027466
1637488187141,0.2059013396501541,9.418789863586426,2.8371291160583496
1637488187161,0.27653029561042786,9.388861656188965,2.964021682739258
1637488187181,0.27892449498176575,9.361329078674316,2.8395233154296875
1637488187201,0.21308395266532898,9.386467933654785,2.89339280128479
1637488187224,,9.385271072387695,
1637488187225,0.2561795711517334,,2.846705913543701
1637488187241,0.2645592987537384,9.369708061218262,2.9161376953125
1637488187261,0.24899697303771973,9.354146003723145,2.9508535861968994
1637488187281,0.25498247146606445,9.394847869873047,2.892195701599121
1637488187301,0.243011474609375,9.431957244873047,2.8431146144866943
1637488187323,,9.41400146484375,
1637488187324,0.23104046285152435,,2.874239206314087
1637488187341,0.2513911724090576,9.39245319366455,2.898181200027466
1637488187361,0.26336219906806946,9.368511199951172,2.895787000656128
1637488187381,0.2645592987537384,9.374496459960938,2.8886044025421143
1637488187401,0.2561795711517334,9.374496459960938,2.895787000656128
1637488187421,0.25498247146606445,9.394847869873047,2.919728994369507
1637488187443,,9.398438453674316,
1637488187444,0.2849099934101105,,2.8610711097717285
1637488187461,0.2454056739807129,9.41519832611084,2.8874073028564453
1637488187483,,9.398438453674316,2.9257144927978516
1637488187484,0.27653029561042786,,
1637488187501,0.25498247146606445,9.378087997436523,2.935291290283203
1637488187521,,9.354146003723145,
1637488187522,0.2298433631658554,,2.9029695987701416
1637488187544,0.25258827209472656,9.367314338684082,2.9460651874542236
1637488187564,0.27054479718208313,9.375694274902344,2.9101521968841553
1637488187581,0.2513911724090576,9.396044731140137,2.9017724990844727
1637488187601,0.2513911724090576,9.402029991149902,2.8862102031707764
1637488187621,0.24779987335205078,9.390059471130371,2.8778305053710938
1637488187641,0.2513911724090576,9.39365005493164,2.8826189041137695
1637488187661,,9.3828763961792,
1637488187662,0.24899697303771973,,2.890998601913452
1637488187681,0.24181437492370605,9.373299598693848,2.919728994369507
1637488187704,,9.379284858703613,2.89339280128479
1637488187705,0.2454056739807129,,
1637488187721,0.2537853717803955,9.370905876159668,2.9005753993988037
1637488187742,,9.374496459960938,
1637488187743,0.26575639843940735,,2.9065608978271484
1637488187762,0.25498247146606445,9.370905876159668,2.911349296569824
1637488187781,0.2585737705230713,9.385271072387695,2.9029695987701416
1637488187801,0.2561795711517334,9.388861656188965,2.8874073028564453
1637488187821,,9.396044731140137,2.8993782997131348
1637488187841,0.25498247146606445,9.387664794921875,2.9029695987701416
1637488187861,,9.379284858703613,
1637488187862,0.25737667083740234,,2.9005753993988037
1637488187881,,9.384073257446289,
1637488187882,0.25258827209472656,,2.850297212600708
1637488187900,,9.38167953491211,
1637488187901,0.23942017555236816,,2.8826189041137695
1637488187921,0.24779987335205078,9.367314338684082,2.8886044025421143
1637488187943,0.27054479718208313,9.378087997436523,2.8886044025421143
1637488187960,,9.409213066101074,
1637488187961,0.26815059781074524,,2.8862102031707764
1637488187981,0.2322375625371933,9.418789863586426,2.8622682094573975
1637488188001,0.25258827209472656,9.422380447387695,2.937685489654541
1637488188021,0.28131869435310364,9.404424667358398,2.850297212600708
1637488188041,0.24420857429504395,9.421183586120605,2.913743495941162
1637488188061,0.20709845423698425,9.422380447387695,2.8359320163726807
1637488188081,0.2621650993824005,9.388861656188965,2.9077579975128174
1637488188103,,9.32421875,
1637488188104,0.2537853717803955,,2.9963433742523193
1637488188121,,9.368511199951172,
1637488188122,0.2561795711517334,,2.93888258934021
1637488188141,0.2298433631658554,9.428366661071777,2.87064790725708
1637488188162,0.22625206410884857,9.433155059814453,2.828749418258667
1637488188181,0.2454056739807129,9.41519832611084,2.8227639198303223
1637488188201,0.25498247146606445,9.394847869873047,2.852691411972046
1637488188221,0.2513911724090576,9.374496459960938,2.87064790725708
1637488188241,0.23942017555236816,9.38167953491211,2.8802247047424316
1637488188261,0.24899697303771973,9.404424667358398,2.9041666984558105
1637488188281,0.2693476974964142,9.394847869873047,2.869450807571411
1637488188301,0.23104046285152435,9.404424667358398,2.9257144927978516
1637488188324,,9.38167953491211,
1637488188325,0.26815059781074524,,2.9065608978271484
1637488188341,0.2621650993824005,9.368511199951172,2.9005753993988037
1637488188361,0.2298433631658554,9.378087997436523,2.868253707885742
1637488188380,,9.376891136169434,
1637488188381,0.2669534981250763,,2.9065608978271484
1637488188401,0.2645592987537384,9.397241592407227,2.9245173931121826
1637488188421,0.25498247146606445,9.427168846130371,2.8814218044281006
1637488188441,0.26575639843940735,9.430760383605957,2.871845006942749
1637488188461,0.2645592987537384,9.419986724853516,2.8610711097717285
1637488188480,,9.412803649902344,
1637488188481,0.2621650993824005,,2.84790301322937
1637488188500,,9.390059471130371,
1637488188501,0.2513911724090576,,2.8634653091430664
1637488188520,,9.376891136169434,
1637488188521,0.23942017555236816,,2.87064790725708
1637488188540,0.23104046285152435,9.379284858703613,2.875436305999756
1637488188561,0.2214636504650116,9.403226852416992,2.853888511657715
1637488188584,0.22026655077934265,9.399636268615723,2.8562827110290527
1637488188601,,9.376891136169434,2.8790276050567627
1637488188602,0.23104046285152435,,
1637488188621,0.2346317619085312,9.376891136169434,2.8826189041137695
1637488188641,0.23343466222286224,9.3828763961792,2.869450807571411
1637488188660,,9.374496459960938,
1637488188661,0.23582886159420013,,2.8862102031707764
1637488188683,,9.374496459960938,
1637488188684,0.23582886159420013,,2.894589900970459
1637488188701,0.24899697303771973,9.368511199951172,2.8874073028564453
1637488188720,,9.373299598693848,
1637488188721,0.24779987335205078,,2.831143617630005
1637488188741,,9.374496459960938,
1637488188742,0.23104046285152435,,2.8658595085144043
1637488188761,0.2322375625371933,9.366117477416992,2.8670566082000732
1637488188780,,9.363722801208496,
1637488188781,0.2621650993824005,,2.8790276050567627
1637488188800,,9.39245319366455,2.855085611343384
1637488188801,0.24899697303771973,,
1637488188821,0.23104046285152435,9.385271072387695,2.9065608978271484
1637488188841,,9.412803649902344,
1637488188842,0.2513911724090576,,2.80361008644104
1637488188863,,9.38167953491211,
1637488188864,0.30286651849746704,,2.9484593868255615
1637488188883,,9.344569206237793,
1637488188884,0.24660277366638184,,2.9316999912261963
1637488188903,,9.362525939941406,
1637488188904,0.20350714027881622,,2.8802247047424316
1637488188923,,9.363722801208496,
1637488188924,0.2190694510936737,,2.8838160037994385
1637488188943,0.23582886159420013,9.391256332397461,2.917334794998169
1637488188961,,9.398438453674316,
1637488188962,0.2561795711517334,,2.8562827110290527
1637488188981,0.2190694510936737,9.424775123596191,2.7952303886413574
1637488189000,,9.38167953491211,
1637488189001,0.2214636504650116,,2.8215668201446533
1637488189023,,9.349357604980469,
1637488189024,0.2190694510936737,,2.8790276050567627
1637488189043,,9.362525939941406,
1637488189044,0.23582886159420013,,2.9029695987701416
1637488189061,0.23702596127986908,9.385271072387695,2.8993782997131348
1637488189080,,9.400833129882812,
1637488189081,0.23104046285152435,,2.913743495941162
1637488189100,,9.398438453674316,
1637488189101,0.22625206410884857,,2.9101521968841553
1637488189121,0.23942017555236816,9.370905876159668,2.855085611343384
1637488189141,0.2059013396501541,9.355342864990234,2.9532477855682373
1637488189161,0.22744916379451752,9.348160743713379,2.850297212600708
1637488189181,0.2322375625371933,9.372102737426758,2.89339280128479
1637488189201,0.22385786473751068,9.36013126373291,2.918531894683838
1637488189223,,9.375694274902344,
1637488189224,0.2346317619085312,,2.911349296569824
1637488189243,,9.396044731140137,
1637488189244,0.23702596127986908,,2.9065608978271484
1637488189264,0.22625206410884857,9.39365005493164,2.8993782997131348
1637488189281,0.23343466222286224,9.394847869873047,2.889801502227783
1637488189301,0.23582886159420013,9.384073257446289,2.8862102031707764
1637488189323,,9.366117477416992,
1637488189324,0.2346317619085312,,2.89339280128479
1637488189340,,9.368511199951172,
1637488189341,0.24181437492370605,,2.8993782997131348
1637488189361,0.21787235140800476,9.370905876159668,2.9077579975128174
1637488189383,,9.38048267364502,
1637488189384,0.21547815203666687,,2.8826189041137695
1637488189403,,9.39245319366455,2.892195701599121
1637488189404,0.2190694510936737,,
1637488189421,0.23104046285152435,9.38167953491211,2.8874073028564453
1637488189440,,9.35773754119873,
1637488189441,0.25258827209472656,,2.8862102031707764
1637488189463,0.26096799969673157,9.35773754119873,2.875436305999756
1637488189481,,9.379284858703613,
1637488189482,0.2322375625371933,,2.8886044025421143
1637488189501,0.23104046285152435,9.41519832611084,2.8886044025421143
1637488189521,0.24660277366638184,9.430760383605957,2.8838160037994385
1637488189541,0.2454056739807129,9.436745643615723,2.8455088138580322
1637488189561,0.22625206410884857,9.400833129882812,2.9065608978271484
1637488189581,,9.373299598693848,2.9005753993988037
1637488189582,0.23942017555236816,,
1637488189600,,9.385271072387695,
1637488189601,0.243011474609375,,2.9221231937408447
1637488189623,,9.418789863586426,
1637488189624,0.23343466222286224,,2.8826189041137695
1637488189643,,9.458293914794922,2.855085611343384
1637488189644,0.1975216418504715,,
1637488189661,0.2645592987537384,9.446322441101074,2.96162748336792
1637488189681,0.2932897210121155,9.425971984863281,2.8622682094573975
1637488189701,0.21787235140800476,9.45111083984375,2.934094190597534
1637488189721,0.18315643072128296,9.434351921081543,2.8622682094573975
1637488189741,0.21428105235099792,9.442731857299805,2.920926094055176
1637488189763,,9.396044731140137,2.9891607761383057
1637488189764,0.2106897532939911,,
1637488189781,0.1951274424791336,9.300276756286621,2.964021682739258
1637488189801,0.2561795711517334,9.287108421325684,2.850297212600708
1637488189823,,9.29309368133545,2.8993782997131348
1637488189824,0.29209262132644653,,
1637488189841,0.32441434264183044,9.295488357543945,2.9688100814819336
1637488189861,0.34596213698387146,9.340977668762207,2.9496564865112305
1637488189883,,9.406818389892578,
1637488189884,0.35913026332855225,,2.9245173931121826
1637488189901,0.3447650372982025,9.428366661071777,2.9544448852539062
1637488189921,0.3315969407558441,9.422380447387695,2.9915549755096436
1637488189941,0.32680854201316833,9.376891136169434,2.9664158821105957
1637488189963,,9.340977668762207,
1637488189964,0.24779987335205078,,3.0394389629364014
1637488189981,,9.327810287475586,2.913743495941162
1637488189982,0.2082955539226532,,
1637488190003,,9.317035675048828,
1637488190004,0.19632454216480255,,2.9939491748809814
1637488190021,0.1149216815829277,9.296685218811035,2.941276788711548
1637488190041,0.1173158809542656,9.318233489990234,2.979583978652954
1637488190061,0.15322890877723694,9.349357604980469,2.9903578758239746
1637488190081,,9.387664794921875,
1637488190082,0.18794482946395874,,2.9712042808532715
1637488190101,,9.406818389892578,
1637488190102,0.22385786473751068,,2.9688100814819336
1637488190124,0.23702596127986908,9.411606788635254,2.9652187824249268
1637488190143,,9.388861656188965,
1637488190144,0.24420857429504395,,2.9652187824249268
1637488190161,,9.340977668762207,2.96162748336792
1637488190162,0.24181437492370605,,
1637488190181,0.22266076505184174,9.312247276306152,2.9664158821105957
1637488190201,0.20949265360832214,9.307458877563477,2.9544448852539062
1637488190221,0.21188685297966003,9.320627212524414,2.9735984802246094
1637488190241,0.2106897532939911,9.352949142456055,2.9915549755096436
1637488190260,,9.386467933654785,
1637488190261,0.22505496442317963,,2.9927520751953125
1637488190281,0.23702596127986908,9.376891136169434,2.9927520751953125
1637488190300,,9.363722801208496,
1637488190301,0.23702596127986908,,2.9927520751953125
1637488190321,0.25498247146606445,9.345766067504883,3.008314371109009
1637488190340,,9.331400871276855,
1637488190341,0.25258827209472656,,3.0166940689086914
1637488190360,,9.340977668762207,
1637488190361,0.26336219906806946,,3.005920171737671
1637488190381,0.2801215946674347,9.342175483703613,2.940079689025879
1637488190401,0.24181437492370605,9.362525939941406,2.977189779281616
1637488190421,0.20231004059314728,9.355342864990234,2.9987375736236572
1637488190441,0.2082955539226532,9.375694274902344,2.9951462745666504
1637488190461,,9.41639518737793,
1637488190462,0.20949265360832214,,3.005920171737671
1637488190480,,9.41759204864502,
1637488190481,0.18076223134994507,,2.983175277709961
1637488190503,,9.394847869873047,
1637488190504,0.19393034279346466,,3.027467966079712
1637488190521,,9.361329078674316,
1637488190522,0.243011474609375,,2.9257144927978516
1637488190541,0.19871874153614044,9.332598686218262,3.005920171737671
1637488190560,,9.321824073791504,
1637488190561,0.16160862147808075,,2.9065608978271484
1637488190580,,9.314641952514648,
1637488190581,0.20949265360832214,,2.977189779281616
1637488190603,,9.301473617553711,
1637488190604,0.22026655077934265,,3.0621838569641113
1637488190621,,9.332598686218262,
1637488190622,0.23104046285152435,,3.064578056335449
1637488190643,0.2082955539226532,9.400833129882812,2.96162748336792
1637488190661,,9.390059471130371,
1637488190662,0.19871874153614044,,2.98437237739563
1637488190683,,9.340977668762207,
1637488190684,0.2106897532939911,,3.00711727142334
1637488190703,,9.327810287475586,
1637488190704,0.20949265360832214,,3.0154969692230225
1637488190721,0.2214636504650116,9.351752281188965,3.002328872680664
1637488190741,0.21787235140800476,9.376891136169434,2.977189779281616
1637488190761,0.22026655077934265,9.39245319366455,3.004723072052002
1637488190781,0.2190694510936737,9.387664794921875,3.004723072052002
1637488190801,0.2214636504650116,9.38167953491211,3.069366693496704
1637488190821,0.2561795711517334,9.35654067993164,2.9879636764526367
1637488190843,,9.312247276306152,
1637488190844,0.24779987335205078,,2.9963433742523193
1637488190861,0.1999158412218094,9.296685218811035,2.964021682739258
1637488190884,0.22026655077934265,9.314641952514648,3.023876667022705
1637488190900,,9.352949142456055,
1637488190901,0.22266076505184174,,3.071760892868042
1637488190920,,9.387664794921875,3.051409959793091
1637488190921,0.20111294090747833,,
1637488190941,0.21547815203666687,9.379284858703613,3.003525972366333
1637488190960,0.243011474609375,9.332598686218262,3.0095114707946777
1637488190981,,9.312247276306152,
1637488190982,0.23822307586669922,,2.980781078338623
1637488191000,0.24779987335205078,9.313444137573242,2.9652187824249268
1637488191020,0.22505496442317963,9.30386734008789,2.9891607761383057
1637488191041,,9.336189270019531,
1637488191042,0.18794482946395874,,3.001131772994995
1637488191060,,9.344569206237793,
1637488191061,0.1867477297782898,,3.0154969692230225
1637488191080,,9.314641952514648,
1637488191081,0.18076223134994507,,3.02986216545105
1637488191101,0.11372458189725876,9.295488357543945,2.9963433742523193
1637488191121,0.08259996026754379,9.306262016296387,2.9879636764526367
1637488191141,0.06224924325942993,9.289502143859863,2.9891607761383057
1637488191161,,9.315838813781738,2.9867665767669678
1637488191180,,9.351752281188965,
1637488191181,0.11971008777618408,,2.964021682739258
1637488191203,,9.378087997436523,
1637488191204,0.1628057211637497,,2.9735984802246094
1637488191223,,9.391256332397461,
1637488191224,0.18794482946395874,,2.9915549755096436
1637488191243,,9.39245319366455,
1637488191244,0.2082955539226532,,3.0119056701660156
1637488191263,,9.398438453674316,
1637488191264,0.2082955539226532,,2.9963433742523193
1637488191281,,9.396044731140137,3.0142998695373535
1637488191282,0.22385786473751068,,
1637488191301,0.22266076505184174,9.399636268615723,2.9963433742523193
1637488191321,0.29807811975479126,9.375694274902344,2.9867665767669678
1637488191343,,9.38048267364502,
1637488191344,0.2932897210121155,,3.0119056701660156
1637488191361,0.23942017555236816,9.39245319366455,2.9161376953125
1637488191381,0.24779987335205078,9.346963882446289,2.960430383682251
1637488191400,,9.308655738830566,
1637488191401,0.22625206410884857,,3.0334534645080566
1637488191421,0.2406172752380371,9.30386734008789,3.0801405906677246
1637488191441,0.2298433631658554,9.38167953491211,3.0334534645080566
1637488191460,,9.425971984863281,
1637488191461,0.20709845423698425,,2.959233283996582
1637488191483,,9.418789863586426,
1637488191484,0.17238251864910126,,2.9879636764526367
1637488191501,0.17477671802043915,9.343372344970703,3.005920171737671
1637488191521,0.1735796183347702,9.315838813781738,3.023876667022705
1637488191541,,9.320627212524414,
1637488191542,0.1604115068912506,,3.046621561050415
1637488191561,,9.311050415039062,
1637488191562,0.16879121959209442,,3.043030261993408
1637488191581,0.19871874153614044,9.334992408752441,2.9903578758239746
1637488191601,0.18914192914962769,9.354146003723145,3.1028854846954346
1637488191621,0.21428105235099792,9.349357604980469,3.0131027698516846
1637488191641,0.21547815203666687,9.349357604980469,3.0825347900390625
1637488191660,,9.333795547485352,
1637488191661,0.16639702022075653,,3.026270866394043
1637488191681,0.19153612852096558,9.309853553771973,3.0561983585357666
1637488191701,0.19273324310779572,9.301473617553711,3.0538041591644287
1637488191723,,9.318233489990234,
1637488191724,0.18555063009262085,,3.0166940689086914
1637488191741,0.1759738177061081,9.348160743713379,3.046621561050415
1637488191761,0.19033902883529663,9.367314338684082,3.0849289894104004
1637488191781,0.19273324310779572,9.35654067993164,3.0609867572784424
1637488191802,,9.35654067993164,
1637488191803,0.16998831927776337,,3.0394389629364014
1637488191821,,9.32302188873291,
1637488191822,0.16400282084941864,,3.046621561050415
1637488191841,0.1735796183347702,9.278728485107422,3.0154969692230225
1637488191864,0.1867477297782898,9.278728485107422,3.027467966079712
1637488191883,,9.30386734008789,
1637488191884,0.19033902883529663,,3.0550012588500977
1637488191901,0.2106897532939911,9.337387084960938,3.0861260890960693
1637488191921,,9.366117477416992,
1637488191922,0.2298433631658554,,3.066972494125366
1637488191941,0.2406172752380371,9.363722801208496,3.0346505641937256
1637488191961,0.1951274424791336,9.331400871276855,3.0813376903533936
1637488191981,0.19393034279346466,9.305065155029297,3.0597896575927734
1637488192003,,9.308655738830566,
1637488192004,0.16998831927776337,,3.093308687210083
1637488192023,0.11133038252592087,9.32541561126709,3.0813376903533936
1637488192040,,9.333795547485352,
1637488192041,0.05267243832349777,,3.0861260890960693
1637488192061,0.14365209639072418,9.348160743713379,3.156754970550537
1637488192081,,9.29309368133545,3.0550012588500977
1637488192082,0.181959331035614,,
1637488192101,0.15921440720558167,9.305065155029297,3.045424461364746
1637488192121,0.1999158412218094,9.333795547485352,3.023876667022705
1637488192141,0.21188685297966003,9.350554466247559,3.0550012588500977
1637488192161,,9.338583946228027,
1637488192162,0.20709845423698425,,3.116053581237793
1637488192181,,9.338583946228027,3.068169593811035
1637488192182,0.2322375625371933,,
1637488192201,0.19871874153614044,9.346963882446289,3.004723072052002
1637488192221,0.19393034279346466,9.3026704788208,3.0597896575927734
1637488192241,0.23104046285152435,9.288305282592773,3.098097085952759
1637488192261,0.2298433631658554,9.300276756286621,3.1064767837524414
1637488192281,,9.306262016296387,3.0837318897247314
1637488192282,0.22625206410884857,,
1637488192300,,9.315838813781738,
1637488192301,0.22026655077934265,,3.0561983585357666
1637488192321,0.21667525172233582,9.321824073791504,3.0657753944396973
1637488192341,0.22625206410884857,9.307458877563477,3.1220390796661377
1637488192364,0.21547815203666687,9.29069995880127,3.0166940689086914
1637488192383,,9.300276756286621,
1637488192384,0.18315643072128296,,2.985569477081299
1637488192400,,9.297882080078125,
1637488192401,0.17717093229293823,,3.0597896575927734
1637488192421,,9.285911560058594,
1637488192422,0.17477671802043915,,3.0585925579071045
1637488192441,0.1843535304069519,9.305065155029297,3.0837318897247314
1637488192460,,9.321824073791504,
1637488192461,0.16879121959209442,,3.0585925579071045
1637488192483,,9.329007148742676,
1637488192484,0.16639702022075653,,3.0526070594787598
1637488192503,,9.340977668762207,
1637488192504,0.19033902883529663,,3.0538041591644287
1637488192521,,9.348160743713379,
1637488192522,0.19632454216480255,,3.0621838569641113
1637488192541,0.1999158412218094,9.343372344970703,3.066972494125366
1637488192561,0.1999158412218094,9.329007148742676,3.075352191925049
1637488192583,,9.32421875,
1637488192584,0.16759411990642548,,3.075352191925049
1637488192603,,9.314641952514648,3.043030261993408
1637488192604,0.18076223134994507,,
1637488192621,,9.277531623840332,
1637488192622,0.17238251864910126,,3.0609867572784424
1637488192641,0.19393034279346466,9.29189682006836,3.0178911685943604
1637488192661,,9.319430351257324,
1637488192662,0.18914192914962769,,3.0178911685943604
1637488192680,,9.342175483703613,
1637488192681,0.20231004059314728,,3.049015760421753
1637488192700,,9.36013126373291,
1637488192701,0.21667525172233582,,3.0609867572784424
1637488192721,0.20949265360832214,9.35893440246582,3.075352191925049
1637488192740,,9.362525939941406,
1637488192741,0.19632454216480255,,3.0849289894104004
1637488192760,,9.375694274902344,
1637488192761,0.13527239859104156,,2.93888258934021
1637488192783,,9.32541561126709,
1637488192784,0.22266076505184174,,3.154360771179199
1637488192803,,9.297882080078125,
1637488192804,0.19393034279346466,,3.049015760421753
1637488192823,,9.320627212524414,
1637488192824,0.10773907601833344,,3.0131027698516846
1637488192841,0.12330138683319092,9.305065155029297,2.9963433742523193
1637488192863,,9.321824073791504,
1637488192864,0.15322890877723694,,3.0346505641937256
1637488192883,0.1388636976480484,9.340977668762207,3.113659381866455
1637488192903,0.181959331035614,9.346963882446289,3.049015760421753
1637488192923,,9.384073257446289,
1637488192924,0.16998831927776337,,2.9963433742523193
1637488192943,,9.351752281188965,
1637488192944,0.17956513166427612,,3.021482467651367
1637488192961,0.20470423996448517,9.330204010009766,3.0334534645080566
1637488192981,0.20709845423698425,9.329007148742676,3.0418331623077393
1637488193001,0.18315643072128296,9.336189270019531,3.0406360626220703
1637488193021,0.16998831927776337,9.354146003723145,3.0322563648223877
1637488193041,0.1843535304069519,9.368511199951172,3.0322563648223877
1637488193061,,9.367314338684082,
1637488193062,0.17836803197860718,,3.1004912853240967
1637488193081,0.15682020783424377,9.369708061218262,2.9927520751953125
1637488193101,0.19871874153614044,9.375694274902344,2.9987375736236572
1637488193121,0.17956513166427612,9.337387084960938,3.0334534645080566
1637488193140,,9.315838813781738,
1637488193141,0.181959331035614,,2.999934673309326
1637488193161,0.20350714027881622,9.339780807495117,3.0382418632507324
1637488193181,0.20470423996448517,9.346963882446289,3.027467966079712
1637488193201,0.18555063009262085,9.378087997436523,2.999934673309326
1637488193224,0.18315643072128296,9.3828763961792,3.003525972366333
1637488193241,0.19632454216480255,9.372102737426758,2.9963433742523193
1637488193261,0.19632454216480255,9.355342864990234,3.0107085704803467
1637488193281,0.18914192914962769,9.332598686218262,3.0190882682800293
1637488193303,,9.327810287475586,
1637488193304,0.17956513166427612,,2.9891607761383057
1637488193321,0.1628057211637497,9.338583946228027,2.985569477081299
1637488193341,0.16639702022075653,9.340977668762207,3.003525972366333
1637488193360,,9.35654067993164,
1637488193361,0.1975216418504715,,3.0095114707946777
1637488193381,0.20470423996448517,9.354146003723145,2.9975404739379883
1637488193401,0.1975216418504715,9.364919662475586,2.942473888397217
1637488193421,0.1843535304069519,9.373299598693848,2.9915549755096436
1637488193441,,9.352949142456055,
1637488193442,0.1999158412218094,,3.004723072052002
1637488193461,0.21308395266532898,9.344569206237793,3.0107085704803467
1637488193481,0.22505496442317963,9.351752281188965,3.0334534645080566
1637488193501,0.18794482946395874,9.35654067993164,2.9460651874542236
1637488193524,0.2693476974964142,9.313444137573242,3.004723072052002
1637488193541,0.2406172752380371,9.338583946228027,3.026270866394043
1637488193560,,9.372102737426758,
1637488193561,0.18315643072128296,,2.9089550971984863
1637488193581,,9.349357604980469,2.9448680877685547
1637488193582,0.2190694510936737,,
1637488193601,,9.338583946228027,
1637488193602,0.23104046285152435,,3.043030261993408
1637488193621,0.2346317619085312,9.319430351257324,3.075352191925049
1637488193642,0.21787235140800476,9.368511199951172,2.9951462745666504
1637488193661,0.1951274424791336,9.387664794921875,2.936488389968872
1637488193683,,9.370905876159668,2.9700071811676025
1637488193684,0.18794482946395874,,
1637488193700,,9.349357604980469,2.9724013805389404
1637488193701,0.19273324310779572,,
1637488193720,,9.338583946228027,
1637488193721,0.20470423996448517,,2.980781078338623
1637488193741,0.20470423996448517,9.339780807495117,2.9963433742523193
1637488193760,,9.35893440246582,
1637488193761,0.20350714027881622,,3.021482467651367
1637488193780,0.23822307586669922,9.361329078674316,2.981978178024292
1637488193803,0.20350714027881622,9.366117477416992,3.0418331623077393
1637488193822,0.22864626348018646,9.364919662475586,2.9448680877685547
1637488193841,0.22864626348018646,9.35773754119873,3.021482467651367
1637488193863,,9.368511199951172,
1637488193864,0.20709845423698425,,2.980781078338623
1637488193881,0.21667525172233582,9.373299598693848,2.9963433742523193
1637488193901,0.22744916379451752,9.38167953491211,3.025073766708374
1637488193920,,9.38048267364502,
1637488193921,0.23822307586669922,,2.9951462745666504
1637488193941,0.22266076505184174,9.39245319366455,3.003525972366333
1637488193961,0.22385786473751068,9.374496459960938,3.005920171737671
1637488193981,,9.351752281188965,
1637488193982,0.22505496442317963,,2.9724013805389404
1637488194003,,9.332598686218262,
1637488194004,0.20111294090747833,,2.977189779281616
1637488194024,0.1975216418504715,9.332598686218262,3.00711727142334
1637488194043,,9.339780807495117,
1637488194044,0.19393034279346466,,2.980781078338623
1637488194061,0.20350714027881622,9.373299598693848,2.9712042808532715
1637488194081,0.2082955539226532,9.38167953491211,2.978386878967285
1637488194103,,9.384073257446289,
1637488194104,0.21428105235099792,,2.9927520751953125
1637488194123,,9.385271072387695,
1637488194124,0.22385786473751068,,2.978386878967285
1637488194141,0.22266076505184174,9.386467933654785,2.9089550971984863
1637488194161,0.2059013396501541,9.364919662475586,2.956839084625244
1637488194181,,9.338583946228027,
1637488194182,0.21787235140800476,,2.96162748336792
1637488194201,0.22744916379451752,9.334992408752441,2.9759926795959473
1637488194221,0.21308395266532898,9.35893440246582,2.9867665767669678
1637488194242,0.19871874153614044,9.368511199951172,3.004723072052002
1637488194261,0.19632454216480255,9.39245319366455,2.9161376953125
1637488194284,0.2932897210121155,9.352949142456055,2.896984100341797
1637488194301,,9.339780807495117,
1637488194302,0.24779987335205078,,3.0202853679656982
1637488194321,0.20231004059314728,9.336189270019531,2.934094190597534
1637488194341,0.2346317619085312,9.351752281188965,2.9724013805389404
1637488194361,0.22385786473751068,9.344569206237793,3.0322563648223877
1637488194381,0.2190694510936737,9.38048267364502,2.9975404739379883
1637488194402,,9.422380447387695,
1637488194403,0.18914192914962769,,2.9281086921691895
1637488194420,,9.39365005493164,
1637488194421,0.17717093229293823,,2.93888258934021
1637488194441,0.1843535304069519,9.344569206237793,2.9891607761383057
1637488194461,0.1999158412218094,9.333795547485352,2.9987375736236572
1637488194481,0.19033902883529663,9.332598686218262,2.9987375736236572
1637488194501,,9.331400871276855,
1637488194502,,,3.008314371109009
1637488194521,0.19393034279346466,9.35893440246582,3.023876667022705
1637488194540,,9.375694274902344,
1637488194541,0.22385786473751068,,2.936488389968872
1637488194561,0.19033902883529663,9.374496459960938,3.008314371109009
1637488194580,,9.35654067993164,
1637488194581,0.2214636504650116,,2.9221231937408447
1637488194600,,9.346963882446289,
1637488194601,0.22864626348018646,,3.027467966079712
1637488194623,,9.32661247253418,2.985569477081299
1637488194624,0.21667525172233582,,
1637488194643,0.243011474609375,9.345766067504883,3.0334534645080566
1637488194661,0.22744916379451752,9.373299598693848,3.005920171737671
1637488194683,,9.386467933654785,
1637488194684,0.21547815203666687,,2.9891607761383057
1637488194701,0.22864626348018646,9.370905876159668,3.002328872680664
1637488194720,,9.342175483703613,
1637488194721,0.22744916379451752,,3.002328872680664
1637488194744,0.2214636504650116,9.327810287475586,3.028665065765381
1637488194763,,9.327810287475586,3.0107085704803467
1637488194764,0.21308395266532898,,
1637488194783,,9.318233489990234,
1637488194784,0.18315643072128296,,3.023876667022705
1637488194801,0.17956513166427612,9.327810287475586,2.9963433742523193
1637488194824,0.1759738177061081,9.332598686218262,3.0131027698516846
1637488194841,0.19871874153614044,9.339780807495117,3.023876667022705
1637488194864,0.2106897532939911,9.327810287475586,3.0095114707946777
1637488194883,,9.32421875,
1637488194884,0.19393034279346466,,2.977189779281616
1637488194903,0.17836803197860718,9.3026704788208,3.0346505641937256
1637488194921,,9.307458877563477,
1637488194922,0.20350714027881622,,3.004723072052002
1637488194943,,9.307458877563477,
1637488194944,0.2190694510936737,,3.0178911685943604
1637488194960,,9.319430351257324,
1637488194961,0.18076223134994507,,3.003525972366333
1637488195013,0.14365209639072418,9.333795547485352,3.0107085704803467
1637488195020,,9.32541561126709,
1637488195021,0.21547815203666687,,2.934094190597534
1637488195040,,9.321824073791504,
1637488195041,0.17836803197860718,,3.023876667022705
1637488195060,,9.32302188873291,
1637488195061,0.1975216418504715,,2.9759926795959473
1637488195080,,9.343372344970703,
1637488195081,0.21787235140800476,,3.0107085704803467
1637488195100,,9.327810287475586,
1637488195101,0.20949265360832214,,3.066972494125366
1637488195120,0.21547815203666687,9.330204010009766,3.0609867572784424
1637488195140,,9.366117477416992,
1637488195141,0.19153612852096558,,2.9712042808532715
1637488195160,0.1759738177061081,9.373299598693848,2.959233283996582
1637488195180,,9.343372344970703,
1637488195181,0.17717093229293823,,3.0131027698516846
1637488195200,0.20350714027881622,9.344569206237793,3.0178911685943604
1637488195220,0.1951274424791336,9.348160743713379,3.005920171737671
1637488195240,,9.344569206237793,
1637488195241,0.20111294090747833,,3.026270866394043
1637488195260,,9.373299598693848,
1637488195261,0.20231004059314728,,3.0358476638793945
1637488195280,,9.350554466247559,3.0621838569641113
1637488195281,0.21787235140800476,,
1637488195300,0.1759738177061081,9.346963882446289,2.980781078338623
1637488195320,0.20231004059314728,9.340977668762207,2.934094190597534
1637488195340,0.1843535304069519,9.344569206237793,3.028665065765381
1637488195360,0.17836803197860718,9.336189270019531,2.9951462745666504
1637488195380,0.20111294090747833,9.345766067504883,3.0310592651367188
1637488195400,0.21188685297966003,9.35654067993164,3.0119056701660156
1637488195420,0.20111294090747833,9.372102737426758,2.9975404739379883
1637488195440,0.21667525172233582,9.38048267364502,2.980781078338623
