timestamp,AccX,AccY,AccZ
1637487509028,-0.011971008032560349,0.11611878126859665,9.655815124511719
1637487509092,-0.013168109580874443,0.13048399984836578,9.648633003234863
1637487509093,-0.013168109580874443,,
1637487509117,-0.020350715145468712,0.12210428714752197,9.643844604492188
1637487509186,-0.017956512048840523,0.12330138683319092,9.640253067016602
1637487509200,,0.12210428714752197,9.642647743225098
1637487509201,-0.016759412363171577,,
1637487509227,-0.015562310814857483,0.11851298063993454,9.6618013381958
1637487509241,-0.016759412363171577,0.12210428714752197,9.653421401977539
1637487509260,-0.0071826050989329815,0.1280897855758667,9.647436141967773
1637487509280,-0.011971008032560349,0.12210428714752197,9.657012939453125
1637487509300,-0.015562310814857483,0.13287819921970367,9.655815124511719
1637487509329,-0.014365210197865963,0.1364694982767105,9.66299819946289
1637487509354,-0.009576806798577309,0.13527239859104156,9.66299819946289
1637487509383,-0.013168109580874443,0.13048399984836578,9.66539192199707
1637487509410,-0.011971008032560349,0.12928688526153564,9.658209800720215
1637487509445,-0.017956512048840523,0.12210428714752197,9.660603523254395
1637487509478,-0.011971008032560349,0.1256955862045288,9.66299819946289
1637487509512,-0.009576806798577309,0.1280897855758667,9.6618013381958
1637487509544,-0.023942016065120697,0.12210428714752197,9.667786598205566
1637487509576,-0.014365210197865963,0.13766659796237946,9.668983459472656
1637487509608,-0.008379706181585789,0.13407529890537262,9.666589736938477
1637487509645,-0.0071826050989329815,0.1256955862045288,9.670180320739746
1637487509677,-0.009576806798577309,0.13766659796237946,9.660603523254395
1637487509709,-0.015562310814857483,0.13168109953403473,9.66419506072998
1637487509740,-0.009576806798577309,0.11851298063993454,9.66299819946289
1637487509774,-0.020350715145468712,0.12330138683319092,9.666589736938477
1637487509812,-0.023942016065120697,0.12210428714752197,9.667786598205566
1637487509845,-0.010773907415568829,0.12090718746185303,9.660603523254395
1637487509876,,0.12689268589019775,9.66299819946289
1637487509877,-0.014365210197865963,,
1637487509932,,0.12330138683319092,
1637487509933,-0.009576806798577309,0.13048399984836578,9.672574996948242
1637487509969,-0.011971008032560349,0.1412578970193863,9.666589736938477
1637487510004,-0.014365210197865963,0.13168109953403473,9.66539192199707
1637487510037,,0.13407529890537262,
1637487510038,-0.021547814831137657,,9.6618013381958
1637487510076,-0.02274491637945175,0.12689268589019775,9.6618013381958
1637487510108,-0.019153613597154617,0.11971008777618408,9.667786598205566
1637487510140,-0.02274491637945175,0.1280897855758667,9.674968719482422
1637487510141,-0.016759412363171577,0.12689268589019775,9.66539192199707
1637487510176,-0.016759412363171577,0.1364694982767105,9.670180320739746
1637487510211,-0.008379706181585789,0.1256955862045288,9.670180320739746
1637487510241,-0.015562310814857483,0.13287819921970367,9.673771858215332
1637487510274,-0.020350715145468712,0.13407529890537262,9.670180320739746
1637487510304,,0.12689268589019775,
1637487510305,-0.014365210197865963,0.13407529890537262,9.66419506072998
1637487510337,-0.017956512048840523,0.12449848651885986,9.668983459472656
1637487510369,-0.020350715145468712,0.12689268589019775,9.670180320739746
1637487510401,-0.017956512048840523,0.13407529890537262,9.673771858215332
1637487510434,-0.020350715145468712,0.13168109953403473,9.668983459472656
1637487510468,-0.019153613597154617,0.1256955862045288,9.66539192199707
1637487510504,-0.013168109580874443,0.1364694982767105,9.666589736938477
1637487510539,-0.017956512048840523,0.13168109953403473,9.668983459472656
1637487510573,,0.1256955862045288,
1637487510574,-0.010773907415568829,,9.66539192199707
1637487510609,-0.011971008032560349,0.13287819921970367,9.666589736938477
1637487510640,-0.011971008032560349,0.12449848651885986,9.673771858215332
1637487510673,-0.017956512048840523,0.12928688526153564,9.657012939453125
1637487510704,-0.009576806798577309,0.12210428714752197,9.667786598205566
1637487510737,-0.011971008032560349,0.12928688526153564,9.670180320739746
1637487510769,-0.014365210197865963,0.1364694982767105,9.66419506072998
1637487510801,-0.019153613597154617,0.1364694982767105,9.66419506072998
1637487510837,-0.009576806798577309,0.13168109953403473,9.66539192199707
1637487510869,-0.021547814831137657,0.12928688526153564,9.668983459472656
1637487510901,-0.013168109580874443,0.13048399984836578,9.678560256958008
1637487510936,-0.010773907415568829,0.12330138683319092,9.667786598205566
1637487510969,-0.016759412363171577,0.11851298063993454,9.671378135681152
1637487511000,-0.019153613597154617,0.12449848651885986,9.66539192199707
1637487511033,,0.13407529890537262,
1637487511034,-0.011971008032560349,,9.660603523254395
1637487511068,-0.008379706181585789,0.13527239859104156,9.66539192199707
1637487511100,,0.13048399984836578,
1637487511101,-0.014365210197865963,0.13168109953403473,9.658209800720215
1637487511134,-0.019153613597154617,0.1280897855758667,9.668983459472656
1637487511169,-0.02274491637945175,0.13407529890537262,9.678560256958008
1637487511199,-0.015562310814857483,0.12449848651885986,9.66299819946289
1637487511200,,0.1280897855758667,
1637487511201,-0.015562310814857483,,9.668983459472656
1637487511233,-0.014365210197865963,0.12928688526153564,9.658209800720215
1637487511265,-0.016759412363171577,0.1280897855758667,9.668983459472656
1637487511297,-0.013168109580874443,0.11851298063993454,9.670180320739746
1637487511329,-0.014365210197865963,0.12090718746185303,9.660603523254395
1637487511361,-0.011971008032560349,0.12928688526153564,9.66299819946289
1637487511396,-0.017956512048840523,0.12928688526153564,9.66539192199707
1637487511430,-0.008379706181585789,0.12210428714752197,9.660603523254395
1637487511461,-0.019153613597154617,0.13168109953403473,9.667786598205566
1637487511503,-0.017956512048840523,0.12330138683319092,9.66419506072998
1637487511533,-0.009576806798577309,0.13048399984836578,9.658209800720215
1637487511566,-0.010773907415568829,0.13048399984836578,9.659406661987305
1637487511596,-0.013168109580874443,0.1256955862045288,9.659406661987305
1637487511629,-0.02274491637945175,0.1256955862045288,9.66419506072998
1637487511660,-0.015562310814857483,0.12689268589019775,9.659406661987305
1637487511693,-0.019153613597154617,0.1280897855758667,9.659406661987305
1637487511724,-0.015562310814857483,0.12928688526153564,9.66419506072998
1637487511757,-0.010773907415568829,0.12928688526153564,9.659406661987305
1637487511789,-0.002394201699644327,0.12330138683319092,9.673771858215332
1637487511823,-0.005985504016280174,0.12090718746185303,9.674968719482422
1637487511855,-0.010773907415568829,0.12330138683319092,9.676166534423828
1637487511885,-0.010773907415568829,0.1149216815829277,9.667786598205566
1637487511921,-0.016759412363171577,0.11971008777618408,9.6618013381958
1637487511952,-0.0071826050989329815,0.11611878126859665,9.66299819946289
1637487511984,-0.017956512048840523,0.11971008777618408,9.658209800720215
1637487512017,-0.013168109580874443,0.12210428714752197,9.657012939453125
1637487512049,-0.010773907415568829,0.12689268589019775,9.651026725769043
1637487512080,-0.010773907415568829,0.12928688526153564,9.651026725769043
1637487512114,-0.015562310814857483,0.12449848651885986,9.651026725769043
1637487512151,-0.017956512048840523,0.11252748221158981,9.642647743225098
1637487512184,-0.017956512048840523,0.11851298063993454,9.648633003234863
1637487512217,,0.12689268589019775,
1637487512218,-0.019153613597154617,,9.637859344482422
1637487512253,-0.010773907415568829,0.12928688526153564,9.647436141967773
1637487512284,-0.013168109580874443,0.12928688526153564,9.660603523254395
1637487512319,-0.019153613597154617,0.13527239859104156,9.655815124511719
1637487512350,-0.008379706181585789,0.13766659796237946,9.649829864501953
1637487512384,-0.008379706181585789,0.12928688526153564,9.641449928283691
1637487512416,-0.011971008032560349,0.11851298063993454,9.643844604492188
1637487512449,-0.020350715145468712,0.1256955862045288,9.648633003234863
1637487512502,,0.11133038252592087,
1637487512503,0.010773907415568829,0.09457096457481384,9.513360023498535
1637487512541,-0.040701430290937424,0.10055647045373917,9.679757118225098
1637487512593,-0.016759412363171577,0.11971008777618408,9.591172218322754
1637487512646,-0.0035913025494664907,0.13168109953403473,9.63187313079834
1637487512703,,0.14604631066322327,
1637487512704,-0.0071826050989329815,0.14604631066322327,9.654618263244629
1637487512745,-0.0071826050989329815,0.13407529890537262,9.63187313079834
1637487512791,-0.028730420395731926,0.1280897855758667,9.640253067016602
1637487512828,,0.12210428714752197,
1637487512829,-0.033518824726343155,0.10175357013940811,9.647436141967773
1637487512865,-0.02274491637945175,0.11252748221158981,9.62947940826416
1637487512909,-0.038307227194309235,0.11372458189725876,9.636661529541016
1637487512942,-0.014365210197865963,0.11611878126859665,9.640253067016602
1637487512979,-0.009576806798577309,0.1280897855758667,9.636661529541016
1637487513013,-0.008379706181585789,0.13766659796237946,9.642647743225098
1637487513045,-0.015562310814857483,0.1412578970193863,9.639056205749512
1637487513081,,0.13527239859104156,9.637859344482422
1637487513082,-0.011971008032560349,,
1637487513112,-0.015562310814857483,0.11971008777618408,9.627084732055664
1637487513152,,0.12090718746185303,9.634267807006836
1637487513153,-0.021547814831137657,,9.62828254699707
1637487513187,-0.02274491637945175,0.11133038252592087,9.637859344482422
1637487513221,-0.011971008032560349,0.11611878126859665,9.640253067016602
1637487513256,-0.02274491637945175,0.1256955862045288,9.635464668273926
1637487513288,-0.02274491637945175,0.1280897855758667,9.63067626953125
1637487513319,-0.019153613597154617,0.1280897855758667,9.62947940826416
1637487513320,,0.14006079733371735,
1637487513321,-0.020350715145468712,,9.694122314453125
1637487513351,-0.02513911761343479,0.13048399984836578,9.657012939453125
1637487513386,-0.021547814831137657,0.12689268589019775,9.637859344482422
1637487513421,-0.021547814831137657,0.13407529890537262,9.634267807006836
1637487513460,-0.013168109580874443,0.12928688526153564,9.621099472045898
1637487513504,-0.0035913025494664907,0.12090718746185303,9.613917350769043
1637487513549,-0.3208230137825012,0.22625206410884857,9.636661529541016
1637487513592,-0.008379706181585789,-0.05386953800916672,9.658209800720215
1637487513628,-0.23942017555236816,-0.12449848651885986,9.520543098449707
1637487513664,-0.2082955539226532,0.2669534981250763,9.641449928283691
1637487513701,0.8248024582862854,-0.20111294090747833,9.552865028381348
1637487513739,,0.6572083830833435,
1637487513740,-0.10654197633266449,,9.761159896850586
1637487513783,,-0.5171475410461426,
1637487513784,-0.9600749015808105,,9.548076629638672
1637487513819,0.2621650993824005,0.6871358752250671,9.75278091430664
1637487513820,-0.21667525172233582,-0.4776432514190674,9.475052833557129
1637487513857,0.10175357013940811,0.7338228225708008,9.77672290802002
1637487513860,-0.1388636976480484,-0.5063736438751221,9.464279174804688
1637487513893,0.06464344263076782,0.7374141216278076,9.783905029296875
1637487513928,-0.12689268589019775,-0.507570743560791,9.467870712280273
1637487513964,-0.17836803197860718,-0.5003881454467773,9.47146224975586
1637487513996,,0.0802057534456253,
1637487513997,-0.1472434103488922,,9.616311073303223
1637487514028,0.5770025849342346,-0.43095630407333374,9.475052833557129
1637487514061,0.015562310814857483,0.10773907601833344,9.605537414550781
1637487514096,-0.043095629662275314,0.14245499670505524,9.607931137084961
1637487514127,0.020350715145468712,0.12210428714752197,9.642647743225098
1637487514161,-0.021547814831137657,0.12449848651885986,9.634267807006836
1637487514193,-0.021547814831137657,0.12090718746185303,9.622296333312988
1637487514224,-0.020350715145468712,0.11971008777618408,9.627084732055664
1637487514257,,0.12210428714752197,
1637487514258,-0.015562310814857483,,9.627084732055664
1637487514289,-0.010773907415568829,0.11971008777618408,9.625887870788574
1637487514321,-0.008379706181585789,0.1280897855758667,9.625887870788574
1637487514353,-0.021547814831137657,0.12330138683319092,9.63067626953125
1637487514385,-0.017956512048840523,0.1256955862045288,9.63067626953125
1637487514418,-0.013168109580874443,0.1256955862045288,9.618705749511719
1637487514451,-0.019153613597154617,0.13287819921970367,9.617507934570312
1637487514486,-0.017956512048840523,0.1256955862045288,9.624691009521484
1637487514518,-0.023942016065120697,0.1256955862045288,9.548076629638672
1637487514550,-0.015562310814857483,0.13048399984836578,9.66299819946289
1637487514593,-0.020350715145468712,0.1173158809542656,9.63187313079834
1637487514639,-0.02992752194404602,0.12330138683319092,9.618705749511719
1637487514685,,0.11971008777618408,
1637487514686,-0.016759412363171577,,9.616311073303223
1637487514732,-0.02513911761343479,0.14006079733371735,9.617507934570312
1637487514774,-0.002394201699644327,0.13168109953403473,9.619902610778809
1637487514813,-0.005985504016280174,0.1280897855758667,9.623494148254395
1637487514851,-0.015562310814857483,0.12689268589019775,9.613917350769043
1637487514893,-0.014365210197865963,0.11133038252592087,9.617507934570312
1637487514941,-0.020350715145468712,0.11372458189725876,9.617507934570312
1637487514977,-0.013168109580874443,0.12449848651885986,9.63067626953125
1637487515011,,0.1280897855758667,
1637487515012,-0.010773907415568829,0.12689268589019775,9.622296333312988
1637487515045,-0.019153613597154617,0.13287819921970367,9.618705749511719
1637487515090,-0.009576806798577309,0.1364694982767105,9.622296333312988
1637487515133,,0.1256955862045288,
1637487515134,-0.02274491637945175,0.12689268589019775,9.623494148254395
1637487515173,-0.010773907415568829,0.12090718746185303,9.625887870788574
1637487515210,,0.12210428714752197,9.62828254699707
1637487515211,-0.015562310814857483,,9.660603523254395
1637487515259,,0.1149216815829277,
1637487515260,0.0035913025494664907,0.1149216815829277,9.521739959716797
1637487515261,,0.12210428714752197,9.612719535827637
1637487515262,-0.03232172131538391,,
1637487515307,-0.020350715145468712,0.1280897855758667,9.622296333312988
1637487515363,-0.019153613597154617,0.12090718746185303,9.624691009521484
1637487515401,-0.021547814831137657,0.13168109953403473,9.622296333312988
1637487515439,-0.0071826050989329815,0.1280897855758667,9.627084732055664
1637487515478,-0.013168109580874443,0.12449848651885986,9.613917350769043
1637487515519,-0.019153613597154617,0.11372458189725876,9.616311073303223
1637487515520,-0.02513911761343479,0.13048399984836578,9.618705749511719
1637487515557,,0.12330138683319092,
1637487515558,-0.026336219161748886,,9.624691009521484
1637487515603,-0.020350715145468712,0.12689268589019775,9.624691009521484
1637487515641,-0.019153613597154617,0.1364694982767105,9.624691009521484
1637487515682,-0.020350715145468712,0.13048399984836578,9.613917350769043
1637487515718,,0.11971008777618408,
1637487515719,-0.011971008032560349,,9.622296333312988
1637487515750,-0.019153613597154617,0.12928688526153564,9.618705749511719
1637487515787,-0.06823474913835526,0.1472434103488922,9.512163162231445
1637487515821,-0.033518824726343155,0.11372458189725876,9.624691009521484
1637487515864,-0.0347159244120121,0.11851298063993454,9.633070945739746
1637487515898,,0.12449848651885986,
1637487515899,-0.038307227194309235,,9.621099472045898
1637487515939,-0.02753331884741783,0.11611878126859665,9.619902610778809
1637487515983,-0.008379706181585789,0.11611878126859665,9.604340553283691
1637487516029,-0.038307227194309235,0.1388636976480484,9.615114212036133
1637487516077,-0.0011971008498221636,0.12330138683319092,9.615114212036133
1637487516082,-0.019153613597154617,0.13168109953403473,9.604340553283691
1637487516129,,0.13407529890537262,
1637487516132,-0.026336219161748886,0.1256955862045288,9.610325813293457
1637487516178,-0.031124621629714966,0.12689268589019775,9.610325813293457
1637487516185,-0.017956512048840523,0.1173158809542656,9.610325813293457
1637487516227,,0.12210428714752197,
1637487516228,-0.017956512048840523,0.1256955862045288,9.607931137084961
1637487516286,-0.031124621629714966,0.13168109953403473,9.611522674560547
1637487516287,-0.02513911761343479,,
1637487516337,-0.0071826050989329815,0.1280897855758667,9.607931137084961
1637487516340,-0.035913024097681046,0.13527239859104156,9.613917350769043
1637487516388,-0.020350715145468712,0.1256955862045288,9.612719535827637
1637487516442,-0.017956512048840523,0.11971008777618408,9.612719535827637
1637487516497,-0.03232172131538391,0.1173158809542656,9.606734275817871
1637487516542,-0.013168109580874443,0.11611878126859665,9.607931137084961
1637487516581,-0.010773907415568829,0.13168109953403473,9.604340553283691
1637487516634,-0.02513911761343479,0.13048399984836578,9.603142738342285
1637487516681,-0.016759412363171577,0.12330138683319092,9.615114212036133
1637487516719,-0.021547814831137657,0.12449848651885986,9.59476375579834
1637487516765,,0.12210428714752197,
1637487516766,-0.031124621629714966,0.13048399984836578,9.601945877075195
1637487516809,,0.11971008777618408,
1637487516810,-0.014365210197865963,0.13168109953403473,9.607931137084961
1637487516846,-0.02274491637945175,0.13287819921970367,9.600749015808105
1637487516892,-0.016759412363171577,0.12330138683319092,9.613917350769043
1637487516940,-0.016759412363171577,0.12090718746185303,9.599552154541016
1637487516983,-0.02274491637945175,0.1256955862045288,9.605537414550781
1637487517029,-0.014365210197865963,0.1256955862045288,9.599552154541016
1637487517075,-0.015562310814857483,0.13407529890537262,9.59835433959961
1637487517117,-0.021547814831137657,0.1256955862045288,9.599552154541016
1637487517165,,0.1256955862045288,
1637487517166,-0.013168109580874443,,9.593565940856934
1637487517213,-0.028730420395731926,0.13048399984836578,9.603142738342285
1637487517257,,0.12928688526153564,9.59476375579834
1637487517258,-0.015562310814857483,,
1637487517298,-0.016759412363171577,0.13407529890537262,9.601945877075195
1637487517340,-0.026336219161748886,0.12330138683319092,9.601945877075195
1637487517378,-0.016759412363171577,0.12330138683319092,9.601945877075195
1637487517425,-0.017956512048840523,0.12330138683319092,9.599552154541016
1637487517478,-0.021547814831137657,0.11851298063993454,9.59835433959961
1637487517522,-0.020350715145468712,0.12210428714752197,9.591172218322754
1637487517569,-0.021547814831137657,0.1256955862045288,9.601945877075195
1637487517570,-0.026336219161748886,,
1637487517604,-0.013168109580874443,0.11851298063993454,9.59835433959961
1637487517638,-0.023942016065120697,0.11851298063993454,9.589975357055664
1637487517669,,0.12090718746185303,
1637487517670,-0.016759412363171577,0.1256955862045288,9.600749015808105
1637487517705,-0.020350715145468712,0.13287819921970367,9.593565940856934
1637487517737,-0.017956512048840523,0.12449848651885986,9.59596061706543
1637487517769,-0.0071826050989329815,0.12689268589019775,9.59835433959961
1637487517801,-0.023942016065120697,0.12449848651885986,9.593565940856934
1637487517835,-0.02513911761343479,0.11971008777618408,9.593565940856934
1637487517869,-0.014365210197865963,0.1173158809542656,9.589975357055664
1637487517910,-0.021547814831137657,0.12689268589019775,9.588777542114258
1637487517945,-0.020350715145468712,0.12689268589019775,9.588777542114258
1637487517977,-0.015562310814857483,0.12210428714752197,9.587580680847168
1637487518009,-0.023942016065120697,0.12330138683319092,9.591172218322754
1637487518041,-0.016759412363171577,0.12689268589019775,9.59476375579834
1637487518073,-0.016759412363171577,0.12090718746185303,9.589975357055664
1637487518105,-0.021547814831137657,0.12449848651885986,9.589975357055664
1637487518138,-0.015562310814857483,0.13048399984836578,9.586383819580078
1637487518169,-0.02274491637945175,0.11252748221158981,9.587580680847168
1637487518201,-0.019153613597154617,0.13048399984836578,9.593565940856934
1637487518238,-0.021547814831137657,0.12330138683319092,9.592369079589844
1637487518273,-0.016759412363171577,0.12449848651885986,9.586383819580078
1637487518310,-0.02513911761343479,0.1256955862045288,9.586383819580078
1637487518345,-0.026336219161748886,0.1256955862045288,9.59476375579834
1637487518381,-0.017956512048840523,0.11971008777618408,9.587580680847168
1637487518418,-0.031124621629714966,0.12689268589019775,9.592369079589844
1637487518449,-0.023942016065120697,0.12210428714752197,9.589975357055664
1637487518481,-0.020350715145468712,0.11971008777618408,9.582792282104492
1637487518521,-0.016759412363171577,0.13048399984836578,9.59476375579834
1637487518553,,0.12330138683319092,
1637487518554,-0.023942016065120697,,9.588777542114258
1637487518588,,0.12689268589019775,
1637487518589,-0.014365210197865963,,9.593565940856934
1637487518621,-0.021547814831137657,0.13168109953403473,9.583989143371582
1637487518664,-0.023942016065120697,0.12330138683319092,9.593565940856934
1637487518697,-0.02513911761343479,0.1256955862045288,9.593565940856934
1637487518728,,0.12090718746185303,
1637487518729,-0.019153613597154617,,9.587580680847168
1637487518762,-0.026336219161748886,0.12689268589019775,9.589975357055664
1637487518796,-0.02992752194404602,0.12090718746185303,9.588777542114258
1637487518833,-0.021547814831137657,0.11611878126859665,9.591172218322754
1637487518865,-0.015562310814857483,0.12330138683319092,9.586383819580078
1637487518866,-0.023942016065120697,,
1637487518900,-0.026336219161748886,0.12210428714752197,9.583989143371582
1637487518936,-0.023942016065120697,0.1173158809542656,9.578003883361816
1637487518974,-0.016759412363171577,0.1364694982767105,9.576807022094727
1637487519014,-0.020350715145468712,0.1173158809542656,9.587580680847168
1637487519048,-0.023942016065120697,0.12928688526153564,9.587580680847168
1637487519081,-0.02274491637945175,0.12330138683319092,9.581595420837402
1637487519113,-0.019153613597154617,0.1280897855758667,9.576807022094727
1637487519149,-0.02274491637945175,0.1280897855758667,9.586383819580078
1637487519185,-0.016759412363171577,0.13048399984836578,9.578003883361816
1637487519220,-0.020350715145468712,0.12210428714752197,9.581595420837402
1637487519253,-0.015562310814857483,0.11252748221158981,9.589975357055664
1637487519285,-0.019153613597154617,0.12689268589019775,9.578003883361816
1637487519317,-0.014365210197865963,0.13287819921970367,9.583989143371582
1637487519349,-0.016759412363171577,0.13048399984836578,9.581595420837402
1637487519383,-0.02513911761343479,0.1280897855758667,9.587580680847168
1637487519417,-0.02513911761343479,0.12330138683319092,9.581595420837402
1637487519448,-0.02274491637945175,0.13287819921970367,9.587580680847168
1637487519480,-0.023942016065120697,0.12449848651885986,9.586383819580078
1637487519512,,0.1280897855758667,
1637487519513,-0.019153613597154617,,9.57441234588623
1637487519544,-0.026336219161748886,0.12210428714752197,9.581595420837402
1637487519576,-0.017956512048840523,0.12330138683319092,9.582792282104492
1637487519608,-0.02513911761343479,0.12210428714752197,9.585186958312988
1637487519640,-0.026336219161748886,0.12689268589019775,9.579200744628906
1637487519673,-0.02513911761343479,0.1173158809542656,9.576807022094727
1637487519705,-0.02753331884741783,0.13048399984836578,9.580398559570312
1637487519746,-0.019153613597154617,0.11971008777618408,9.591172218322754
1637487519778,-0.020350715145468712,0.13168109953403473,9.581595420837402
1637487519814,-0.026336219161748886,0.11851298063993454,9.585186958312988
1637487519853,-0.021547814831137657,0.12449848651885986,9.587580680847168
1637487519885,-0.019153613597154617,0.12090718746185303,9.582792282104492
1637487519920,-0.023942016065120697,0.12210428714752197,9.580398559570312
1637487519953,-0.03232172131538391,0.1173158809542656,9.586383819580078
1637487519989,-0.019153613597154617,0.12449848651885986,9.579200744628906
1637487520022,-0.021547814831137657,0.1149216815829277,9.576807022094727
1637487520059,-0.028730420395731926,0.11971008777618408,9.576807022094727
1637487520092,-0.02274491637945175,0.12689268589019775,9.580398559570312
1637487520129,-0.016759412363171577,0.12928688526153564,9.569623947143555
1637487520165,-0.015562310814857483,0.12928688526153564,9.585186958312988
1637487520201,-0.026336219161748886,0.13407529890537262,9.582792282104492
1637487520233,-0.02274491637945175,0.11851298063993454,9.588777542114258
1637487520269,-0.026336219161748886,0.1280897855758667,9.576807022094727
1637487520304,-0.021547814831137657,0.12210428714752197,9.57441234588623
1637487520337,-0.026336219161748886,0.12090718746185303,9.576807022094727
1637487520369,-0.028730420395731926,0.12449848651885986,9.586383819580078
1637487520401,-0.019153613597154617,0.12210428714752197,9.583989143371582
1637487520433,,0.11971008777618408,
1637487520434,-0.02992752194404602,,9.580398559570312
1637487520468,-0.02274491637945175,0.1256955862045288,9.578003883361816
1637487520500,,0.12449848651885986,9.585186958312988
1637487520501,,0.12330138683319092,9.586383819580078
1637487520532,-0.02513911761343479,0.11372458189725876,9.578003883361816
1637487520564,-0.017956512048840523,0.12330138683319092,9.57441234588623
1637487520597,-0.016759412363171577,0.12449848651885986,9.583989143371582
1637487520628,,0.1149216815829277,
1637487520629,-0.023942016065120697,0.12090718746185303,9.579200744628906
1637487520663,-0.02274491637945175,0.1256955862045288,9.579200744628906
1637487520701,,0.12210428714752197,
1637487520702,-0.02274491637945175,,9.582792282104492
1637487520737,-0.026336219161748886,0.12689268589019775,9.588777542114258
1637487520768,-0.013168109580874443,0.12449848651885986,9.580398559570312
1637487520800,-0.02753331884741783,0.1256955862045288,9.587580680847168
1637487520833,-0.016759412363171577,0.12689268589019775,9.579200744628906
1637487520864,-0.028730420395731926,0.12330138683319092,9.583989143371582
1637487520900,-0.021547814831137657,0.12689268589019775,9.579200744628906
1637487520936,-0.020350715145468712,0.12330138683319092,9.586383819580078
1637487520968,-0.02274491637945175,0.12928688526153564,9.583989143371582
1637487521000,-0.020350715145468712,0.12449848651885986,9.585186958312988
1637487521035,-0.020350715145468712,0.11971008777618408,9.582792282104492
1637487521067,-0.020350715145468712,0.12449848651885986,9.579200744628906
1637487521100,-0.02274491637945175,0.12330138683319092,9.575610160827637
1637487521133,-0.021547814831137657,0.11372458189725876,9.57441234588623
1637487521166,-0.016759412363171577,0.1173158809542656,9.579200744628906
1637487521197,-0.015562310814857483,0.12449848651885986,9.57441234588623
1637487521231,-0.016759412363171577,0.1173158809542656,9.581595420837402
1637487521232,-0.02992752194404602,,
1637487521264,-0.016759412363171577,0.12090718746185303,9.57441234588623
1637487521297,-0.03232172131538391,0.1256955862045288,9.585186958312988
1637487521332,-0.014365210197865963,0.11971008777618408,9.579200744628906
1637487521364,-0.017956512048840523,0.11611878126859665,9.580398559570312
1637487521396,-0.021547814831137657,0.12449848651885986,9.566033363342285
1637487521433,-0.020350715145468712,0.11851298063993454,9.576807022094727
1637487521465,-0.028730420395731926,0.12449848651885986,9.591172218322754
1637487521496,-0.02513911761343479,0.12449848651885986,9.581595420837402
1637487521529,-0.02274491637945175,0.12090718746185303,9.57201862335205
1637487521560,,0.1149216815829277,
1637487521561,-0.026336219161748886,0.11851298063993454,9.582792282104492
1637487521592,,0.12928688526153564,
1637487521593,-0.021547814831137657,,9.581595420837402
1637487521625,-0.019153613597154617,0.11971008777618408,9.580398559570312
1637487521657,-0.019153613597154617,0.1256955862045288,9.578003883361816
1637487521689,-0.017956512048840523,0.1256955862045288,9.580398559570312
1637487521690,-0.021547814831137657,,
1637487521720,,0.1173158809542656,
1637487521721,-0.017956512048840523,0.12689268589019775,9.581595420837402
1637487521752,-0.013168109580874443,0.12689268589019775,9.586383819580078
1637487521784,-0.015562310814857483,0.12449848651885986,9.575610160827637
1637487521817,-0.023942016065120697,0.12449848651885986,9.586383819580078
1637487521852,-0.023942016065120697,0.12689268589019775,9.586383819580078
1637487521885,-0.020350715145468712,0.11851298063993454,9.580398559570312
1637487521921,,0.1149216815829277,
1637487521922,-0.014365210197865963,0.1256955862045288,9.581595420837402
1637487521960,-0.023942016065120697,0.1256955862045288,9.586383819580078
1637487521992,-0.014365210197865963,0.11372458189725876,9.583989143371582
1637487522024,-0.019153613597154617,0.12689268589019775,9.588777542114258
1637487522056,-0.02513911761343479,0.12689268589019775,9.589975357055664
1637487522089,-0.031124621629714966,0.1256955862045288,9.585186958312988
1637487522120,-0.02513911761343479,0.1280897855758667,9.588777542114258
1637487522121,-0.020350715145468712,,
1637487522154,-0.014365210197865963,0.1149216815829277,9.582792282104492
1637487522188,-0.019153613597154617,0.13407529890537262,9.580398559570312
1637487522220,-0.020350715145468712,0.12928688526153564,9.587580680847168
1637487522255,-0.02513911761343479,0.11851298063993454,9.57201862335205
1637487522292,-0.019153613597154617,0.12210428714752197,9.575610160827637
1637487522324,-0.023942016065120697,0.11851298063993454,9.585186958312988
1637487522358,-0.026336219161748886,0.12090718746185303,9.580398559570312
1637487522392,-0.021547814831137657,0.12449848651885986,9.59715747833252
1637487522425,-0.02992752194404602,0.1256955862045288,9.581595420837402
1637487522457,-0.02274491637945175,0.1256955862045288,9.591172218322754
1637487522488,-0.019153613597154617,0.11851298063993454,9.59596061706543
1637487522520,-0.019153613597154617,0.12090718746185303,9.579200744628906
1637487522521,-0.019153613597154617,0.11611878126859665,9.583989143371582
1637487522554,-0.015562310814857483,0.12449848651885986,9.580398559570312
1637487522588,-0.017956512048840523,0.12449848651885986,9.585186958312988
1637487522621,-0.020350715145468712,0.11851298063993454,9.587580680847168
1637487522653,-0.023942016065120697,0.12689268589019775,9.587580680847168
1637487522684,-0.02274491637945175,0.1256955862045288,9.585186958312988
1637487522716,-0.020350715145468712,0.12330138683319092,9.589975357055664
1637487522749,-0.02274491637945175,0.12330138683319092,9.578003883361816
1637487522787,-0.016759412363171577,0.12689268589019775,9.586383819580078
1637487522820,-0.017956512048840523,0.12330138683319092,9.581595420837402
1637487522852,-0.016759412363171577,0.12689268589019775,9.586383819580078
1637487522884,-0.019153613597154617,0.12449848651885986,9.588777542114258
1637487522916,-0.019153613597154617,0.12689268589019775,9.586383819580078
1637487522951,-0.02274491637945175,0.1256955862045288,9.591172218322754
1637487522981,-0.020350715145468712,0.12210428714752197,9.581595420837402
1637487523013,-0.020350715145468712,0.12090718746185303,9.587580680847168
1637487523044,-0.019153613597154617,0.1280897855758667,9.582792282104492
1637487523077,-0.010773907415568829,0.12090718746185303,9.599552154541016
1637487523111,,0.12090718746185303,
1637487523112,-0.020350715145468712,0.11252748221158981,9.576807022094727
1637487523147,-0.020350715145468712,0.11971008777618408,9.587580680847168
1637487523182,-0.020350715145468712,0.13168109953403473,9.592369079589844
1637487523216,-0.020350715145468712,0.1256955862045288,9.59835433959961
1637487523250,-0.021547814831137657,0.12210428714752197,9.59715747833252
1637487523281,-0.015562310814857483,0.1280897855758667,9.580398559570312
1637487523316,-0.014365210197865963,0.11851298063993454,9.583989143371582
1637487523351,,0.12210428714752197,9.59715747833252
1637487523352,-0.016759412363171577,,9.592369079589844
1637487523384,-0.028730420395731926,0.12330138683319092,9.589975357055664
1637487523416,-0.016759412363171577,0.12330138683319092,9.591172218322754
1637487523448,-0.03232172131538391,0.12090718746185303,9.592369079589844
1637487523482,-0.026336219161748886,0.1149216815829277,9.585186958312988
1637487523517,-0.02513911761343479,0.11851298063993454,9.59476375579834
1637487523551,-0.016759412363171577,0.12449848651885986,9.593565940856934
1637487523584,-0.021547814831137657,0.13287819921970367,9.59596061706543
1637487523617,-0.015562310814857483,0.12210428714752197,9.588777542114258
1637487523648,-0.026336219161748886,0.12210428714752197,9.593565940856934
1637487523680,-0.019153613597154617,0.11971008777618408,9.593565940856934
1637487523713,-0.020350715145468712,0.11611878126859665,9.600749015808105
1637487523747,-0.023942016065120697,0.1173158809542656,9.586383819580078
1637487523778,-0.014365210197865963,0.12689268589019775,9.604340553283691
1637487523812,-0.021547814831137657,0.1149216815829277,9.593565940856934
1637487523850,-0.017956512048840523,0.12449848651885986,9.585186958312988
1637487523884,-0.014365210197865963,0.1280897855758667,9.589975357055664
1637487523917,-0.020350715145468712,0.12210428714752197,9.59476375579834
1637487523950,-0.020350715145468712,0.12449848651885986,9.587580680847168
1637487523982,-0.019153613597154617,0.13168109953403473,9.601945877075195
1637487524015,-0.017956512048840523,0.12449848651885986,9.59835433959961
1637487524045,-0.019153613597154617,0.12090718746185303,9.591172218322754
1637487524076,-0.02513911761343479,0.12449848651885986,9.59835433959961
1637487524112,-0.019153613597154617,0.12689268589019775,9.599552154541016
1637487524145,-0.020350715145468712,0.12330138683319092,9.600749015808105
1637487524175,-0.014365210197865963,0.12689268589019775,9.593565940856934
1637487524208,-0.023942016065120697,0.12330138683319092,9.59476375579834
1637487524239,-0.019153613597154617,0.12330138683319092,9.588777542114258
1637487524269,-0.021547814831137657,0.12449848651885986,9.581595420837402
1637487524301,-0.019153613597154617,0.13168109953403473,9.591172218322754
1637487524332,-0.021547814831137657,0.12090718746185303,9.59596061706543
1637487524367,-0.015562310814857483,0.12210428714752197,9.589975357055664
1637487524397,-0.020350715145468712,0.12330138683319092,9.593565940856934
1637487524429,-0.021547814831137657,0.1173158809542656,9.59715747833252
1637487524460,-0.02274491637945175,0.11851298063993454,9.59476375579834
1637487524491,-0.020350715145468712,0.12689268589019775,9.59476375579834
1637487524521,-0.021547814831137657,0.12330138683319092,9.603142738342285
1637487524553,,0.12090718746185303,
1637487524554,-0.015562310814857483,,9.600749015808105
1637487524584,,0.12330138683319092,
1637487524585,-0.021547814831137657,0.12449848651885986,9.603142738342285
1637487524616,-0.019153613597154617,0.12689268589019775,9.592369079589844
1637487524645,-0.017956512048840523,0.1280897855758667,9.599552154541016
1637487524677,-0.017956512048840523,0.12689268589019775,9.59835433959961
1637487524708,-0.019153613597154617,0.1280897855758667,9.59835433959961
1637487524737,-0.026336219161748886,0.12928688526153564,9.603142738342285
1637487524768,-0.016759412363171577,0.1280897855758667,9.603142738342285
1637487524797,-0.021547814831137657,0.12090718746185303,9.583989143371582
1637487524829,-0.023942016065120697,0.12090718746185303,9.599552154541016
1637487524861,-0.02513911761343479,0.11133038252592087,9.59476375579834
1637487524892,-0.02274491637945175,0.11971008777618408,9.59596061706543
1637487524925,-0.02753331884741783,0.12330138683319092,9.604340553283691
1637487524957,-0.02274491637945175,0.12928688526153564,9.59476375579834
1637487524991,-0.023942016065120697,0.12090718746185303,9.59715747833252
1637487525024,-0.020350715145468712,0.12210428714752197,9.604340553283691
1637487525057,-0.023942016065120697,0.11971008777618408,9.603142738342285
1637487525089,-0.020350715145468712,0.12090718746185303,9.607931137084961
1637487525121,-0.014365210197865963,0.11611878126859665,9.606734275817871
1637487525152,-0.017956512048840523,0.11851298063993454,9.609128952026367
1637487525185,-0.013168109580874443,0.11851298063993454,9.599552154541016
1637487525219,-0.014365210197865963,0.12090718746185303,9.609128952026367
1637487525249,,0.1173158809542656,
1637487525250,-0.020350715145468712,0.1256955862045288,9.610325813293457
1637487525282,-0.008379706181585789,0.11971008777618408,9.604340553283691
1637487525314,-0.019153613597154617,0.12689268589019775,9.592369079589844
1637487525349,-0.016759412363171577,0.11971008777618408,9.609128952026367
1637487525380,-0.015562310814857483,0.12330138683319092,9.592369079589844
1637487525413,-0.02274491637945175,0.12928688526153564,9.59715747833252
1637487525447,-0.017956512048840523,0.12210428714752197,9.613917350769043
1637487525483,-0.011971008032560349,0.12330138683319092,9.59596061706543
1637487525529,-0.021547814831137657,0.11971008777618408,9.59476375579834
1637487525572,-0.013168109580874443,0.1173158809542656,9.601945877075195
1637487525613,-0.023942016065120697,0.11971008777618408,9.600749015808105
1637487525653,-0.016759412363171577,0.11971008777618408,9.607931137084961
1637487525697,-0.017956512048840523,0.12090718746185303,9.609128952026367
1637487525701,-0.009576806798577309,0.12090718746185303,9.59476375579834
1637487525739,-0.021547814831137657,0.11971008777618408,9.603142738342285
1637487525779,-0.015562310814857483,0.12330138683319092,9.601945877075195
1637487525816,-0.021547814831137657,0.11971008777618408,9.611522674560547
1637487525855,,0.11611878126859665,
1637487525885,,0.12210428714752197,
1637487525886,-0.016759412363171577,0.11851298063993454,9.609128952026367
1637487525916,-0.014365210197865963,0.12090718746185303,9.604340553283691
1637487525947,,0.1256955862045288,
1637487525948,-0.016759412363171577,0.12689268589019775,9.59835433959961
1637487525977,-0.017956512048840523,0.11851298063993454,9.606734275817871
1637487526008,-0.019153613597154617,0.12689268589019775,9.605537414550781
1637487526037,-0.010773907415568829,0.1280897855758667,9.600749015808105
1637487526068,-0.014365210197865963,0.13407529890537262,9.606734275817871
1637487526110,-0.021547814831137657,0.12330138683319092,9.607931137084961
1637487526154,,0.1256955862045288,9.59715747833252
1637487526155,-0.014365210197865963,,
1637487526186,-0.013168109580874443,0.13527239859104156,9.599552154541016
1637487526217,-0.020350715145468712,0.13048399984836578,9.600749015808105
1637487526249,-0.017956512048840523,0.12210428714752197,9.600749015808105
1637487526280,-0.026336219161748886,0.12330138683319092,9.59596061706543
1637487526312,-0.013168109580874443,0.1280897855758667,9.601945877075195
1637487526349,-0.023942016065120697,0.11971008777618408,9.599552154541016
1637487526381,,0.12330138683319092,
1637487526382,-0.019153613597154617,,9.605537414550781
1637487526413,-0.020350715145468712,0.11851298063993454,9.605537414550781
1637487526443,-0.019153613597154617,0.12090718746185303,9.603142738342285
1637487526473,-0.009576806798577309,0.12330138683319092,9.600749015808105
1637487526502,-0.019153613597154617,0.11971008777618408,9.59596061706543
1637487526532,,0.13168109953403473,9.610325813293457
1637487526533,-0.020350715145468712,,
1637487526564,-0.016759412363171577,0.11372458189725876,9.613917350769043
1637487526597,-0.016759412363171577,0.12330138683319092,9.605537414550781
1637487526628,-0.019153613597154617,0.12689268589019775,9.599552154541016
1637487526659,,0.12330138683319092,
1637487526660,-0.020350715145468712,0.11971008777618408,9.59715747833252
1637487526689,-0.017956512048840523,0.11851298063993454,9.603142738342285
1637487526720,-0.014365210197865963,0.12449848651885986,9.599552154541016
1637487526754,-0.019153613597154617,0.12689268589019775,9.606734275817871
1637487526784,-0.026336219161748886,0.11971008777618408,9.59596061706543
1637487526817,-0.020350715145468712,0.12689268589019775,9.607931137084961
1637487526848,-0.013168109580874443,0.11611878126859665,9.592369079589844
1637487526881,-0.02513911761343479,0.12210428714752197,9.603142738342285
1637487526918,-0.015562310814857483,0.12330138683319092,9.59596061706543
1637487526949,-0.019153613597154617,0.11611878126859665,9.600749015808105
1637487526980,-0.011971008032560349,0.13287819921970367,9.593565940856934
1637487527013,-0.021547814831137657,0.13048399984836578,9.593565940856934
1637487527045,-0.020350715145468712,0.12210428714752197,9.59596061706543
1637487527077,-0.021547814831137657,0.12449848651885986,9.601945877075195
1637487527111,-0.019153613597154617,0.12330138683319092,9.583989143371582
1637487527141,-0.011971008032560349,0.12449848651885986,9.599552154541016
1637487527172,-0.016759412363171577,0.12449848651885986,9.599552154541016
1637487527204,-0.017956512048840523,0.12210428714752197,9.607931137084961
1637487527236,,0.12689268589019775,
1637487527237,-0.021547814831137657,,9.59596061706543
1637487527269,-0.023942016065120697,0.13168109953403473,9.604340553283691
1637487527301,-0.014365210197865963,0.12449848651885986,9.599552154541016
1637487527332,-0.021547814831137657,0.1256955862045288,9.59835433959961
1637487527368,-0.02274491637945175,0.13287819921970367,9.606734275817871
1637487527401,,0.11851298063993454,
1637487527402,-0.021547814831137657,0.11971008777618408,9.601945877075195
1637487527433,-0.014365210197865963,0.11851298063993454,9.59596061706543
1637487527465,-0.02753331884741783,0.11971008777618408,9.600749015808105
1637487527497,-0.020350715145468712,0.12210428714752197,9.599552154541016
1637487527530,-0.028730420395731926,0.12330138683319092,9.603142738342285
1637487527564,-0.021547814831137657,0.12449848651885986,9.600749015808105
1637487527596,-0.015562310814857483,0.12090718746185303,9.609128952026367
1637487527629,-0.016759412363171577,0.1173158809542656,9.604340553283691
1637487527662,-0.026336219161748886,0.12090718746185303,9.599552154541016
1637487527692,-0.023942016065120697,0.12330138683319092,9.604340553283691
1637487527725,-0.023942016065120697,0.1256955862045288,9.603142738342285
1637487527757,-0.021547814831137657,0.12330138683319092,9.600749015808105
1637487527788,-0.02753331884741783,0.1149216815829277,9.59476375579834
1637487527821,-0.017956512048840523,0.12449848651885986,9.604340553283691
1637487527853,-0.015562310814857483,0.12330138683319092,9.601945877075195
1637487527885,-0.021547814831137657,0.12210428714752197,9.606734275817871
1637487527917,-0.017956512048840523,0.1280897855758667,9.603142738342285
1637487527948,-0.016759412363171577,0.11372458189725876,9.592369079589844
1637487527981,-0.010773907415568829,0.1173158809542656,9.59596061706543
1637487528012,-0.017956512048840523,0.1256955862045288,9.599552154541016
1637487528045,-0.016759412363171577,0.11851298063993454,9.606734275817871
1637487528077,-0.017956512048840523,0.12210428714752197,9.59596061706543
1637487528110,-0.017956512048840523,0.11611878126859665,9.603142738342285
1637487528141,-0.020350715145468712,0.12330138683319092,9.611522674560547
1637487528172,-0.020350715145468712,0.12210428714752197,9.607931137084961
1637487528204,-0.014365210197865963,0.12330138683319092,9.603142738342285
1637487528235,-0.023942016065120697,0.1173158809542656,9.59835433959961
1637487528265,-0.017956512048840523,0.12449848651885986,9.599552154541016
1637487528296,-0.016759412363171577,0.1256955862045288,9.604340553283691
1637487528329,-0.015562310814857483,0.12330138683319092,9.603142738342285
1637487528361,-0.019153613597154617,0.11851298063993454,9.603142738342285
1637487528392,,0.1256955862045288,9.603142738342285
1637487528393,-0.021547814831137657,,
1637487528428,-0.017956512048840523,0.12449848651885986,9.601945877075195
1637487528460,-0.02274491637945175,0.11971008777618408,9.59715747833252
1637487528493,,0.1256955862045288,9.605537414550781
1637487528494,-0.020350715145468712,,
1637487528524,-0.021547814831137657,0.12330138683319092,9.607931137084961
1637487528557,-0.009576806798577309,0.12689268589019775,9.606734275817871
1637487528589,,0.12090718746185303,9.604340553283691
1637487528590,-0.021547814831137657,,9.59715747833252
1637487528620,-0.023942016065120697,0.12210428714752197,9.604340553283691
1637487528651,,0.12090718746185303,9.609128952026367
1637487528652,-0.016759412363171577,,
1637487528684,,0.12689268589019775,
1637487528685,-0.016759412363171577,0.12210428714752197,9.605537414550781
1637487528717,-0.015562310814857483,0.12330138683319092,9.607931137084961
1637487528749,-0.023942016065120697,0.11851298063993454,9.613917350769043
1637487528780,-0.016759412363171577,0.12449848651885986,9.606734275817871
1637487528812,-0.023942016065120697,0.1256955862045288,9.607931137084961
1637487528844,-0.02274491637945175,0.12210428714752197,9.607931137084961
1637487528877,-0.017956512048840523,0.12090718746185303,9.601945877075195
1637487528908,-0.017956512048840523,0.1256955862045288,9.609128952026367
1637487528941,-0.016759412363171577,0.12090718746185303,9.607931137084961
1637487528972,-0.016759412363171577,0.13287819921970367,9.609128952026367
1637487529005,-0.014365210197865963,0.11851298063993454,9.606734275817871
1637487529036,-0.026336219161748886,0.11252748221158981,9.606734275817871
1637487529068,-0.016759412363171577,0.1173158809542656,9.610325813293457
1637487529100,-0.019153613597154617,0.11252748221158981,9.600749015808105
1637487529132,-0.010773907415568829,0.12210428714752197,9.618705749511719
1637487529161,-0.016759412363171577,0.12090718746185303,9.605537414550781
1637487529193,-0.014365210197865963,0.12689268589019775,9.609128952026367
1637487529225,-0.011971008032560349,0.13048399984836578,9.615114212036133
1637487529226,-0.011971008032560349,,
1637487529256,-0.02274491637945175,0.12210428714752197,9.603142738342285
1637487529288,-0.020350715145468712,0.12330138683319092,9.605537414550781
1637487529320,-0.017956512048840523,0.12449848651885986,9.610325813293457
1637487529321,-0.021547814831137657,0.11971008777618408,9.600749015808105
1637487529350,-0.014365210197865963,0.12449848651885986,9.607931137084961
1637487529384,-0.013168109580874443,0.11971008777618408,9.615114212036133
1637487529416,-0.019153613597154617,0.12210428714752197,9.615114212036133
1637487529448,,0.12210428714752197,
1637487529449,-0.020350715145468712,0.12928688526153564,9.609128952026367
1637487529480,-0.023942016065120697,0.12210428714752197,9.606734275817871
1637487529513,-0.019153613597154617,0.1173158809542656,9.605537414550781
1637487529545,-0.013168109580874443,0.12330138683319092,9.605537414550781
1637487529578,-0.021547814831137657,0.12689268589019775,9.603142738342285
1637487529609,-0.011971008032560349,0.12449848651885986,9.609128952026367
1637487529643,-0.013168109580874443,0.13048399984836578,9.615114212036133
1637487529673,-0.02274491637945175,0.12210428714752197,9.606734275817871
1637487529705,-0.011971008032560349,0.1280897855758667,9.604340553283691
1637487529736,-0.0454898327589035,0.13168109953403473,9.592369079589844
1637487529769,-0.02513911761343479,0.12928688526153564,9.618705749511719
1637487529800,-1.923741102218628,0.49320554733276367,9.633070945739746
1637487529832,-0.06464344263076782,0.1604115068912506,9.607931137084961
1637487529865,-0.02753331884741783,0.24899697303771973,9.593565940856934
1637487529897,-0.41539400815963745,0.1867477297782898,9.593565940856934
1637487529928,-0.52552729845047,0.33997663855552673,9.671378135681152
1637487529960,0.21667525172233582,-0.12210428714752197,9.613917350769043
1637487529992,,0.2992752194404602,
1637487529993,-1.1408370733261108,,9.59715747833252
1637487530024,-0.6811503767967224,0.2861070930957794,9.610325813293457
1637487530056,-0.08738835901021957,0.004788403399288654,9.599552154541016
1637487530085,0.04908113554120064,0.0035913025494664907,9.637859344482422
1637487530116,0.31603461503982544,-0.1867477297782898,9.607931137084961
1637487530149,0.9792284965515137,-0.23343466222286224,9.599552154541016
1637487530180,1.8136078119277954,-0.06584054976701736,9.610325813293457
1637487530213,0.07302315533161163,0.13287819921970367,9.603142738342285
1637487530246,0.07661445438861847,0.14006079733371735,9.604340553283691
1637487530280,0.05626374110579491,0.17238251864910126,9.606734275817871
1637487530320,0.0586579404771328,0.15562310814857483,9.609128952026367
1637487530321,0.07062894850969315,0.15083470940589905,9.59596061706543
1637487530358,0.06823474913835526,0.14365209639072418,9.615114212036133
1637487530360,0.05626374110579491,0.16759411990642548,9.59835433959961
1637487530395,0.0586579404771328,0.1735796183347702,9.585186958312988
1637487530429,0.05386953800916672,0.16879121959209442,9.606734275817871
1637487530463,0.07661445438861847,0.14245499670505524,9.501389503479004
1637487530496,0.07302315533161163,0.152031809091568,9.603142738342285
1637487530529,0.05386953800916672,0.1711854189634323,9.593565940856934
1637487530561,0.023942016065120697,0.1628057211637497,9.727641105651855
1637487530592,0.11013327538967133,0.15442600846290588,9.530119895935059
1637487530625,0.05027823522686958,0.16519992053508759,9.621099472045898
1637487530657,-0.005985504016280174,0.1759738177061081,9.63067626953125
1637487530689,0.002394201699644327,0.15801730751991272,9.635464668273926
1637487530720,1.1240776777267456,0.5195417404174805,9.750386238098145
1637487530753,-0.1149216815829277,-0.014365210197865963,9.520543098449707
1637487530786,0.1041477769613266,0.304063618183136,9.003395080566406
1637487530817,0.5267243981361389,0.25498247146606445,11.003750801086426
1637487530851,0.1759738177061081,-0.07900865375995636,10.65898609161377
1637487530884,0.7769184708595276,-0.07302315533161163,6.682217121124268
1637487530917,-1.5550340414047241,0.5554547905921936,10.077195167541504
1637487530952,-0.6919242739677429,0.48722004890441895,10.225635528564453
1637487530985,0.04429273307323456,0.18076223134994507,9.561244010925293
1637487531017,0.06464344263076782,0.008379706181585789,9.898826599121094
1637487531053,,-0.4572925269603729,
1637487531054,-0.9756371974945068,,11.314997673034668
1637487531097,-1.5897499322891235,-0.0071826050989329815,12.162544250488281
1637487531102,-0.22625206410884857,-0.8798691034317017,10.618284225463867
1637487531133,-1.037886381149292,0.2561795711517334,11.621455192565918
1637487531165,-2.80361008644104,0.48602294921875,11.099518775939941
1637487531206,0.456095427274704,1.8315643072128296,10.57040023803711
1637487531258,0.8595184087753296,0.9097966551780701,9.131484985351562
1637487531298,2.369062662124634,2.942473888397217,8.246828079223633
1637487531344,0.32680854201316833,3.714603900909424,7.241262912750244
1637487531385,3.5960910320281982,3.400963544845581,7.364564418792725
1637487531437,0.7984662652015686,4.088099479675293,7.805097579956055
1637487531492,2.8359320163726807,4.551377296447754,7.691372871398926
1637487531518,-2.5546131134033203,5.238513469696045,9.064447402954102
1637487531542,-2.145204782485962,4.945223808288574,8.670601844787598
1637487531560,,4.064157485961914,
1637487531561,-1.0031704902648926,,8.268375396728516
1637487531692,-0.5135562419891357,3.624821424484253,8.364143371582031
1637487531700,1.015141487121582,4.618414878845215,8.729259490966797
1637487531720,0.35434186458587646,4.757278919219971,9.14225959777832
1637487531740,0.06823474913835526,5.130774021148682,9.465476036071777
1637487531760,-3.7864298820495605,5.228936672210693,12.392388343811035
1637487531780,-0.37229835987091064,5.740098476409912,8.327033042907715
1637487531800,-0.7469909191131592,5.055356979370117,10.065223693847656
1637487531820,-2.5785553455352783,6.521805286407471,6.1519012451171875
1637487531840,-1.1073182821273804,5.969942092895508,6.35301399230957
1637487531860,-2.782062292098999,6.485892295837402,6.8162922859191895
1637487531880,-4.028244495391846,7.066486358642578,4.766855716705322
1637487531900,,6.754043102264404,
1637487531901,-3.4165258407592773,,5.817910194396973
1637487531920,-3.818751811981201,7.048529624938965,7.82305383682251
1637487531941,-3.6750996112823486,7.101202011108398,7.309497833251953
1637487531960,-4.244919776916504,7.374141216278076,6.402095317840576
1637487531980,,5.971138954162598,
1637487531981,-4.933252811431885,,5.238513469696045
1637487532000,-4.63517427444458,5.635950565338135,2.9903578758239746
1637487532020,-2.3726539611816406,7.706935405731201,2.630030632019043
1637487532040,-4.665102005004883,7.430405139923096,1.0259153842926025
1637487532061,-2.7928361892700195,8.667010307312012,-0.13407529890537262
1637487532080,,9.230844497680664,
1637487532081,-2.7246015071868896,,1.157596468925476
1637487532100,-3.9695863723754883,9.949105262756348,-0.6596025824546814
1637487532120,-4.69024133682251,10.092757225036621,-2.185906171798706
1637487532140,,9.398438453674316,-2.367865562438965
1637487532141,-3.9264907836914062,,
1637487532160,-3.383007049560547,8.93037223815918,-0.6667851805686951
1637487532180,-2.537853717803955,9.051279067993164,-0.6200982332229614
1637487532200,-1.6041151285171509,9.191340446472168,-0.12928688526153564
1637487532220,-1.5622166395187378,9.696516990661621,0.4644751250743866
1637487532240,-0.40701428055763245,9.436745643615723,1.216254472732544
1637487532260,-0.6033388376235962,8.633491516113281,2.1811177730560303
1637487532280,-1.2234370708465576,7.965508937835693,2.7090392112731934
1637487532300,1.0833762884140015,7.205349922180176,1.5418659448623657
1637487532320,,8.159439086914062,
1637487532321,-3.354276657104492,,-0.07062894850969315
1637487532340,-0.22385786473751068,10.315418243408203,-0.5925649404525757
1637487532360,-3.070563793182373,10.188525199890137,-2.412158250808716
1637487532380,-4.355052947998047,11.105504989624023,-3.421314239501953
1637487532400,-5.230133533477783,12.290634155273438,-3.86543869972229
1637487532420,-5.197812080383301,13.476961135864258,-2.5462334156036377
1637487532440,-4.93923807144165,13.2710599899292,1.5693992376327515
1637487532460,,12.653355598449707,0.7936778664588928
1637487532461,-3.205836057662964,,
1637487532480,-1.4616601467132568,11.420342445373535,-0.5793967843055725
1637487532501,-0.10295066982507706,10.522516250610352,-1.5622166395187378
1637487532520,,10.2747163772583,
1637487532521,1.8830395936965942,,-5.215768337249756
1637487532540,1.6903064250946045,9.907206535339355,-6.1949968338012695
1637487532560,0.4357447028160095,9.276334762573242,-3.6332011222839355
1637487532580,0.02513911761343479,8.960299491882324,0.21787235140800476
1637487532600,1.5502456426620483,8.900444984436035,-1.655590534210205
1637487532620,,8.428787231445312,
1637487532621,1.9488801956176758,,-2.1595699787139893
1637487532640,,8.220491409301758,-3.2357635498046875
1637487532641,1.6172832250595093,,
1637487532660,1.7525556087493896,7.280767440795898,-2.1775264739990234
1637487532680,1.8758569955825806,7.052121162414551,0.16639702022075653
1637487532700,1.8543092012405396,7.42561674118042,0.8463503122329712
1637487532720,2.0602104663848877,7.375338554382324,-0.08259996026754379
1637487532740,2.3511061668395996,7.796717643737793,-1.5406688451766968
1637487532762,1.580173134803772,8.005013465881348,-2.0913352966308594
1637487532780,1.6268600225448608,8.360552787780762,-2.7054479122161865
1637487532800,1.9273324012756348,9.160215377807617,-2.4145524501800537
1637487532820,,9.394847869873047,
1637487532821,1.9584569931030273,,-2.0183119773864746
1637487532840,2.075772762298584,9.403226852416992,-3.1663317680358887
1637487532860,1.577778935432434,9.907206535339355,-3.049015760421753
1637487532880,2.0697872638702393,10.086771965026855,-1.945288896560669
1637487532900,1.96683669090271,10.398017883300781,-0.6811503767967224
1637487532923,1.6041151285171509,10.528501510620117,-0.9624691009521484
1637487532940,1.6089035272598267,10.126276016235352,-1.0761936902999878
1637487532960,1.6819267272949219,9.768342971801758,-2.6013002395629883
1637487532982,1.9117701053619385,9.911994934082031,-1.4640543460845947
1637487533003,2.1284453868865967,9.512163162231445,0.6524199843406677
1637487533020,1.5394717454910278,9.390059471130371,-0.7134721279144287
1637487533040,1.8076223134994507,9.503783226013184,-2.1978771686553955
1637487533060,,9.278728485107422,
1637487533061,2.073378562927246,,-1.3467384576797485
1637487533080,2.013523578643799,8.89685344696045,0.6847416758537292
1637487533100,2.3535003662109375,8.437167167663574,-0.2885012924671173
1637487533121,,9.036913871765137,0.34596213698387146
1637487533122,2.536656618118286,,
1637487533141,,9.96945571899414,
1637487533142,0.8678981065750122,,1.2330138683319092
1637487533161,,9.660603523254395,
1637487533162,1.5119383335113525,,1.7980455160140991
1637487533182,,9.214085578918457,
1637487533183,1.6950948238372803,,2.0195090770721436
1637487533201,,9.455899238586426,3.0825347900390625
1637487533202,0.19033902883529663,,
1637487533221,,9.156624794006348,4.077325344085693
1637487533222,0.8882488012313843,,
1637487533241,0.38307225704193115,9.229647636413574,3.689464807510376
1637487533261,0.22505496442317963,9.829395294189453,1.5514427423477173
1637487533281,-0.4692635238170624,9.780313491821289,4.533421039581299
1637487533300,,8.803479194641113,
1637487533301,0.06823474913835526,,5.971138954162598
1637487538086,,9.26795482635498,5.160701751708984
1637487538087,0.16998831927776337,,2.47560453414917
1637487538100,,9.467870712280273,
1637487538101,0.3411737382411957,,2.875436305999756
1637487538120,,9.232041358947754,
1637487538121,0.424970805644989,,3.0394389629364014
1637487538140,0.3842693865299225,9.345766067504883,3.112462282180786
1637487538160,,9.467870712280273,
1637487538161,0.31603461503982544,,2.9867665767669678
1637487538180,0.4704606235027313,9.54209041595459,2.7892448902130127
1637487538200,,9.490615844726562,2.8778305053710938
1637487538201,0.6715735793113708,,
1637487538220,,9.252392768859863,
1637487538221,0.35075053572654724,,3.1974563598632812
1637487538240,,9.230844497680664,3.3016040325164795
1637487538241,0.2454056739807129,,
1637487538260,,9.186552047729492,
1637487538261,0.1364694982767105,,3.2740707397460938
1637487538281,-0.19153612852096558,9.305065155029297,2.8658595085144043
1637487538300,,9.38048267364502,
1637487538301,-0.014365210197865963,,2.738966703414917
1637487538320,,9.399636268615723,
1637487538321,0.22266076505184174,,3.045424461364746
1637487538340,,9.370905876159668,
1637487538341,0.1711854189634323,,3.047818660736084
1637487538360,,9.283516883850098,
1637487538361,0.023942016065120697,,3.066972494125366
1637487538380,,9.154230117797852,
1637487538381,0.023942016065120697,,3.1208419799804688
1637487538400,,9.136273384094238,
1637487538401,0.1412578970193863,,3.248931646347046
1637487538421,0.061052143573760986,9.241618156433105,3.159149169921875
1637487538440,,9.222464561462402,
1637487538441,0.1759738177061081,,3.223792552947998
1637487538460,,9.271546363830566,
1637487538461,0.28371289372444153,,3.1950621604919434
1637487538480,,9.340977668762207,
1637487538481,0.2298433631658554,,3.0107085704803467
1637487538500,0.15801730751991272,9.363722801208496,3.046621561050415
1637487538520,0.15442600846290588,9.355342864990234,3.137601375579834
1637487538540,,9.36013126373291,
1637487538541,0.1388636976480484,,3.1316158771514893
1637487538561,0.12210428714752197,9.294290542602539,3.1028854846954346
1637487538581,0.12449848651885986,9.240421295166016,3.1004912853240967
1637487538600,,9.222464561462402,
1637487538601,0.1388636976480484,,3.1232361793518066
1637487538621,0.1388636976480484,9.193734169006348,3.1663317680358887
1637487538640,,9.121908187866211,
1637487538641,0.12449848651885986,,3.26688814163208
1637487538661,0.13527239859104156,9.091980934143066,3.0657753944396973
1637487538681,0.1843535304069519,9.120711326599121,3.090914487838745
1637487538700,,9.313444137573242,
1637487538701,0.13168109953403473,,3.069366693496704
1637487538720,,9.452308654785156,
1637487538721,0.16639702022075653,,3.156754970550537
1637487538740,,9.455899238586426,
1637487538741,0.19033902883529663,,3.138798475265503
1637487538760,,9.372102737426758,3.071760892868042
1637487538761,0.14844051003456116,,
1637487538781,0.20350714027881622,9.307458877563477,2.958036184310913
1637487538800,,9.340977668762207,
1637487538801,0.23822307586669922,,3.0837318897247314
1637487538820,,9.321824073791504,
1637487538821,0.2322375625371933,,3.2130186557769775
1637487538842,,9.300276756286621,3.160346269607544
1637487538843,0.2298433631658554,,
1637487538861,,9.275136947631836,
1637487538862,0.20949265360832214,,3.0789434909820557
1637487576086,0.18076223134994507,9.248801231384277,3.161543369293213
1637487576102,0.03232172131538391,9.287108421325684,3.220201253890991
1637487576121,0.02513911761343479,9.276334762573242,3.224989652633667
1637487576140,,9.281123161315918,
1637487576141,0.02753331884741783,,3.220201253890991
1637487576160,,9.26795482635498,
1637487576161,0.017956512048840523,,3.223792552947998
1637487576180,,9.26795482635498,
1637487576181,0.020350715145468712,,3.228580951690674
1637487576200,,9.283516883850098,
1637487576201,-0.0035913025494664907,,3.2333693504333496
1637487576221,,9.306262016296387,
1637487576222,-0.008379706181585789,,3.2309751510620117
1637487576241,-0.0071826050989329815,9.306262016296387,3.2309751510620117
1637487576260,,9.297882080078125,
1637487576261,0.019153613597154617,,3.2393548488616943
1637487576280,,9.285911560058594,
1637487576281,0.02274491637945175,,3.2333693504333496
1637487576300,,9.288305282592773,
1637487576301,0.03232172131538391,,3.183091163635254
1637487576320,,9.275136947631836,
1637487576321,0.017956512048840523,,3.2142157554626465
1637487576341,0.03711012750864029,9.254786491394043,3.2381577491760254
1637487576361,0.05267243832349777,9.26915168762207,3.2321722507476807
1637487576381,0.03232172131538391,9.282320022583008,3.224989652633667
1637487576401,-0.002394201699644327,9.297882080078125,3.2381577491760254
1637487576421,0.02274491637945175,9.29069995880127,3.226186752319336
1637487576441,0.08140286058187485,9.263166427612305,3.1747114658355713
1637487576461,0.0454898327589035,9.26795482635498,3.2609026432037354
1637487576480,,9.271546363830566,
1637487576481,0.008379706181585789,,3.1483752727508545
1637487576500,,9.273940086364746,
1637487576501,0.043095629662275314,,3.199850559234619
1637487576520,,9.285911560058594,
1637487576521,0.009576806798577309,,3.2776620388031006
1637487576541,-0.013168109580874443,9.297882080078125,3.228580951690674
1637487576561,-0.017956512048840523,9.346963882446289,3.1651346683502197
1637487576580,,9.336189270019531,
1637487576581,-0.013168109580874443,,3.181894063949585
1637487576601,,9.305065155029297,
1637487576602,-0.0035913025494664907,,3.1962592601776123
1637487576621,,9.278728485107422,
1637487576622,0.002394201699644327,,3.224989652633667
1637487576641,,9.26915168762207,
1637487576642,-0.005985504016280174,,3.2142157554626465
1637487576660,,9.276334762573242,
1637487576661,-0.005985504016280174,,3.226186752319336
1637487576680,,9.29309368133545,
1637487576681,-0.008379706181585789,,3.248931646347046
1637487576700,,9.288305282592773,
1637487576701,0.020350715145468712,,3.179499864578247
1637487576720,,9.301473617553711,
1637487576721,-0.010773907415568829,,3.2309751510620117
1637487576741,,9.3026704788208,
1637487576742,0.0347159244120121,,3.1675288677215576
1637487576762,0.05147533491253853,9.282320022583008,3.2525229454040527
1637487576781,,9.264363288879395,3.205836057662964
1637487576782,0.02274491637945175,,
1637487576801,,9.26795482635498,
1637487576802,0.04668693244457245,,3.2309751510620117
1637487576822,0.06224924325942993,9.281123161315918,3.222595453262329
1637487576841,,9.296685218811035,
1637487576842,0.061052143573760986,,3.2297780513763428
1637487576861,0.0454898327589035,9.306262016296387,3.2369606494903564
1637487576881,,9.295488357543945,
1637487576882,0.03232172131538391,,3.2142157554626465
1637487576902,0.016759412363171577,9.300276756286621,3.207033157348633
1637487576921,,9.288305282592773,
1637487576922,0.002394201699644327,,3.220201253890991
1637487576941,,9.288305282592773,
1637487576942,0.002394201699644327,,3.2106244564056396
1637487576962,,9.288305282592773,3.199850559234619
1637487576963,-0.026336219161748886,,
1637487582087,,9.287108421325684,3.1902737617492676
1637487582088,-0.023942016065120697,,
1637487582100,,9.276334762573242,
1637487582101,0.04189852997660637,,3.2333693504333496
1637487582120,,9.271546363830566,
1637487582121,0.04668693244457245,,3.2980127334594727
1637487582141,0.043095629662275314,9.296685218811035,3.2405519485473633
1637487582160,,9.348160743713379,
1637487582161,0.026336219161748886,,3.1471781730651855
1637487582180,,9.331400871276855,
1637487582181,0.013168109580874443,,3.1675288677215576
1637487582204,0.023942016065120697,9.29189682006836,3.185485363006592
1637487582220,,9.284713745117188,
1637487582221,0.031124621629714966,,3.199850559234619
1637487582240,,9.278728485107422,3.2321722507476807
1637487582241,0.02992752194404602,,
1637487582260,,9.282320022583008,
1637487582261,0.02753331884741783,,3.265691041946411
1637487582280,,9.29069995880127,
1637487582281,0.017956512048840523,,3.272873640060425
1637487582300,,9.294290542602539,
1637487582301,0.038307227194309235,,3.223792552947998
1637487582320,,9.300276756286621,
1637487582321,0.009576806798577309,,3.1651346683502197
1637487582340,,9.3026704788208,
1637487582341,0.04429273307323456,,3.1735143661499023
1637487582360,,9.288305282592773,
1637487582361,0.014365210197865963,,3.177105665206909
1637487582380,,9.271546363830566,
1637487582381,0.008379706181585789,,3.1747114658355713
1637487582400,,9.284713745117188,
1637487582401,0.038307227194309235,,3.2154128551483154
1637487582420,,9.301473617553711,
1637487582421,0.05267243832349777,,3.203441858291626
1637487582440,,9.330204010009766,
1637487582441,0.04668693244457245,,3.203441858291626
1637487582460,,9.311050415039062,
1637487582461,0.02992752194404602,,3.2106244564056396
1637487582481,0.026336219161748886,9.297882080078125,3.2142157554626465
1637487582501,0.02992752194404602,9.279925346374512,3.2082302570343018
1637487582520,,9.273940086364746,
1637487582521,0.026336219161748886,,3.2166099548339844
1637487582541,0.040701430290937424,9.275136947631836,3.1890766620635986
1637487582561,0.013168109580874443,9.281123161315918,3.185485363006592
1637487582580,,9.299078941345215,
1637487582581,0.0035913025494664907,,3.1878795623779297
1637487582601,0.010773907415568829,9.306262016296387,3.1890766620635986
1637487582621,0.020350715145468712,9.30386734008789,3.2166099548339844
1637487582640,,9.281123161315918,
1637487582641,0.02753331884741783,,3.2309751510620117
1637487582660,,9.277531623840332,3.224989652633667
1637487582661,0.017956512048840523,,
1637487582681,0.026336219161748886,9.275136947631836,3.2321722507476807
1637487582702,0.023942016065120697,9.26795482635498,3.265691041946411
1637487582721,,9.26795482635498,
1637487582722,0.043095629662275314,,3.2154128551483154
1637487582741,,9.279925346374512,3.1866824626922607
1637487582742,0.02513911761343479,,
1637487582761,,9.276334762573242,
1637487582762,0.013168109580874443,,3.2297780513763428
1637487582781,,9.284713745117188,3.220201253890991
1637487582782,0.03711012750864029,,
1637487582802,,9.278728485107422,
1637487582803,0.009576806798577309,,3.224989652633667
1637487582821,,9.255983352661133,
1637487582822,0.013168109580874443,,3.264493942260742
1637487582841,0.0035913025494664907,9.279925346374512,3.156754970550537
1637487582860,,9.246406555175781,
1637487582861,0.10893617570400238,,3.3016040325164795
1637487582881,0.06344634294509888,9.224859237670898,3.2764649391174316
1637487582900,,9.253589630126953,
1637487582901,0.008379706181585789,,3.199850559234619
1637487582921,0.023942016065120697,9.258378028869629,3.1938650608062744
1637487582941,0.02513911761343479,9.288305282592773,3.2620997428894043
1637487582962,0.02992752194404602,9.278728485107422,3.292027235031128
1637487582982,0.02274491637945175,9.300276756286621,3.2118215560913086
1637487583001,,9.301473617553711,
1637487583002,0.011971008032560349,,3.1926679611206055
1637487583021,,9.261969566345215,
1637487583022,0.017956512048840523,,3.246537446975708
1637487583042,,9.255983352661133,
1637487583043,0.02513911761343479,,3.269282341003418
1637487583062,,9.272743225097656,3.24414324760437
1637487583063,0.035913024097681046,,
1637487583081,,9.289502143859863,
1637487583082,0.04189852997660637,,3.268085241317749
1637487583101,,9.294290542602539,
1637487583102,0.026336219161748886,,3.2632968425750732
1637487583121,,9.284713745117188,
1637487583122,0.023942016065120697,,3.1938650608062744
1637487583142,,9.260771751403809,
1637487583143,0.010773907415568829,,3.307589530944824
1637487583164,,9.26915168762207,3.179499864578247
1637487583165,0.033518824726343155,,
1637487583182,,9.264363288879395,3.19865345954895
1637487583183,0.03950432687997818,,
1637487583201,,9.26795482635498,
1637487583202,0.013168109580874443,,3.2381577491760254
1637487583221,,9.252392768859863,
1637487583222,0.02513911761343479,,3.2190041542053223
1637487583241,,9.287108421325684,
1637487583242,0.043095629662275314,,3.2537200450897217
1637487599086,0.040701430290937424,9.306262016296387,3.245340347290039
1637487599102,-0.013168109580874443,9.26675796508789,3.287238836288452
1637487599121,,9.272743225097656,
1637487599122,-0.021547814831137657,,3.3016040325164795
1637487599142,-0.07900865375995636,9.26915168762207,3.251325845718384
1637487599160,,9.229647636413574,
1637487599161,-0.017956512048840523,,3.293224334716797
1637487599180,,9.217676162719727,
1637487599181,-0.004788403399288654,,3.33392596244812
1637487599200,,9.216479301452637,
1637487599201,-0.040701430290937424,,3.2597055435180664
1637487599221,0.004788403399288654,9.240421295166016,3.2333693504333496
1637487599243,,9.247604370117188,3.384204149246216
1637487599244,0.0035913025494664907,,
1637487599261,,9.249998092651367,
1637487599262,0.014365210197865963,,3.3710360527038574
1637487599280,,9.300276756286621,
1637487599281,0.0071826050989329815,,3.292027235031128
1637487599301,-0.017956512048840523,9.320627212524414,3.2190041542053223
1637487599320,,9.26915168762207,
1637487599321,-0.021547814831137657,,3.2752678394317627
1637487599340,,9.23323917388916,
1637487599341,-0.0035913025494664907,,3.3016040325164795
1637487599360,,9.241618156433105,
1637487599361,0.002394201699644327,,3.3195607662200928
1637487599380,,9.26675796508789,
1637487599381,0.0071826050989329815,,3.28963303565979
1637487599401,0.005985504016280174,9.295488357543945,3.2980127334594727
1637487599421,0.011971008032560349,9.285911560058594,3.294421434402466
1637487599440,,9.273940086364746,3.2357635498046875
1637487599441,-0.043095629662275314,,
1637487599461,0.0071826050989329815,9.258378028869629,3.271676540374756
1637487599481,-0.023942016065120697,9.244012832641602,3.2836475372314453
1637487599500,,9.254786491394043,
1637487599501,-0.03232172131538391,,3.245340347290039
1637487599521,0.010773907415568829,9.272743225097656,3.2740707397460938
1637487599540,,9.297882080078125,
1637487599541,0.015562310814857483,,3.2549171447753906
1637487599560,,9.279925346374512,
1637487599561,0.0071826050989329815,,3.2992098331451416
1637487599580,,9.252392768859863,
1637487599581,-0.021547814831137657,,3.308786630630493
1637487599600,,9.263166427612305,
1637487599601,-0.020350715145468712,,3.271676540374756
1637487599620,,9.278728485107422,
1637487599621,-0.0011971008498221636,,3.2369606494903564
1637487599640,,9.296685218811035,
1637487599641,0.009576806798577309,,3.286041736602783
1637487599660,,9.27034854888916,
1637487599661,0.002394201699644327,,3.3423056602478027
1637487599681,-0.019153613597154617,9.23682975769043,3.3039982318878174
1637487599700,,9.229647636413574,
1637487599701,-0.028730420395731926,,3.2740707397460938
1637487599720,,9.214085578918457,3.3016040325164795
1637487599721,-0.013168109580874443,,
1637487599740,,9.204508781433105,
1637487599741,-0.0011971008498221636,,3.332728862762451
1637487599760,,9.211690902709961,
1637487599761,-0.002394201699644327,,3.2333693504333496
1637487599780,,9.245209693908691,
1637487599781,-0.02753331884741783,,3.19865345954895
1637487599801,-0.05506663769483566,9.245209693908691,3.2585084438323975
1637487599820,,9.244012832641602,
1637487599821,-0.04189852997660637,,3.2309751510620117
1637487599840,,9.240421295166016,3.2585084438323975
1637487599841,-0.040701430290937424,,
1637487599860,,9.252392768859863,
1637487599861,-0.06464344263076782,,3.2369606494903564
1637487599880,,9.277531623840332,
1637487599881,-0.10055647045373917,,3.139995574951172
1637487599900,,9.251194953918457,
1637487599901,0.026336219161748886,,3.3255462646484375
1637487599921,0.0347159244120121,9.214085578918457,3.313575267791748
1637487599940,,9.260771751403809,
1637487599941,-0.033518824726343155,,3.220201253890991
1637487599960,,9.29309368133545,3.155557870864868
1637487599961,0.020350715145468712,,
1637487599980,,9.297882080078125,
1637487599981,0.020350715145468712,,3.24414324760437
1637487600000,0.0071826050989329815,9.248801231384277,3.293224334716797
1637487600020,,9.254786491394043,
1637487600021,0.010773907415568829,,3.28963303565979
1637487600040,,9.26675796508789,
1637487600041,-0.010773907415568829,,3.2764649391174316
1637487600060,,9.252392768859863,
1637487600061,-0.011971008032560349,,3.294421434402466
1637487600107,-0.011971008032560349,9.240421295166016,3.3650505542755127
1637487600122,-0.13407529890537262,9.264363288879395,3.35667085647583
1637487600140,,9.285911560058594,
1637487600141,-0.16998831927776337,,3.3530795574188232
1637487600160,,9.307458877563477,
1637487600161,-0.11013327538967133,,3.202244758605957
1637487600180,,9.297882080078125,
1637487600181,-0.11851298063993454,,3.19865345954895
1637487600200,,9.300276756286621,
1637487600201,-0.038307227194309235,,3.0609867572784424
1637487600220,,9.287108421325684,
1637487600221,-0.009576806798577309,,3.1531636714935303
1637487600240,,9.294290542602539,3.139995574951172
1637487600241,-0.03950432687997818,,
1637487600260,,9.278728485107422,3.312378168106079
1637487600261,-0.07781155407428741,,
1637487600280,,9.253589630126953,
1637487600281,-0.035913024097681046,,3.3925838470458984
1637487600301,0.09457096457481384,9.249998092651367,3.400963544845581
1637487600320,,9.258378028869629,
1637487600321,0.05985504388809204,,3.2812533378601074
1637487600340,,9.257181167602539,
1637487600341,-0.07661445438861847,,3.3004069328308105
1637487600360,,9.220070838928223,
1637487600361,-0.19393034279346466,,3.378218650817871
1637487600380,,9.273940086364746,
1637487600381,-0.18794482946395874,,3.271676540374756
1637487600400,,9.319430351257324,
1637487600401,-0.0694318488240242,,3.1747114658355713
1637487600420,,9.273940086364746,
1637487600421,0.0035913025494664907,,3.1651346683502197
1637487600440,,9.181763648986816,
1637487600441,0.038307227194309235,,3.307589530944824
1637487600460,,9.210494041442871,3.3315317630767822
1637487600461,0.038307227194309235,,
1637487600481,-0.03711012750864029,9.27034854888916,3.313575267791748
1637487600500,,9.314641952514648,3.318363666534424
1637487600501,-0.06703764945268631,,
1637487600520,,9.32541561126709,
1637487600521,-0.02753331884741783,,3.313575267791748
1637487600540,,9.30386734008789,
1637487600541,-0.004788403399288654,,3.312378168106079
1637487600560,,9.30386734008789,3.247734546661377
1637487600561,-0.02992752194404602,,
1637487600581,0.07302315533161163,9.288305282592773,3.2632968425750732
1637487600600,,9.216479301452637,
1637487600601,0.181959331035614,,3.2800562381744385
1637487600622,,9.165003776550293,3.2824504375457764
1637487600623,0.21428105235099792,,
1637487600640,,9.155426979064941,
1637487600641,0.1472434103488922,,3.3243491649627686
1637487600660,,9.197325706481934,3.4117374420166016
1637487600661,0.11971008777618408,,
1637487600680,,9.246406555175781,3.3710360527038574
1637487600681,0.152031809091568,,
1637487600700,,9.27034854888916,
1637487600701,0.18794482946395874,,3.357867956161499
1637487600720,,9.32541561126709,
1637487600721,0.10654197633266449,,3.312378168106079
1637487600740,,9.26915168762207,
1637487600741,0.07541735470294952,,3.1699230670928955
1637487600761,0.05746084079146385,9.248801231384277,3.245340347290039
1637487600781,0.06344634294509888,9.228450775146484,3.2836475372314453
1637487600801,0.047884032130241394,9.247604370117188,3.245340347290039
1637487600822,0.014365210197865963,9.271546363830566,3.203441858291626
1637487600842,0.043095629662275314,9.227252960205078,3.286041736602783
1637487600861,0.0586579404771328,9.162610054016113,3.3662476539611816
1637487600881,0.06224924325942993,9.181763648986816,3.378218650817871
1637487600901,0.010773907415568829,9.246406555175781,3.3267433643341064
1637487600922,,9.297882080078125,
1637487600923,-0.07661445438861847,,3.2417490482330322
1637487600941,-0.09696517139673233,9.317035675048828,3.222595453262329
1637487600961,,9.30386734008789,
1637487600962,-0.10175357013940811,,3.163937568664551
1637487600981,,9.300276756286621,
1637487600982,-0.15682020783424377,,3.2309751510620117
1637487601001,-0.1149216815829277,9.284713745117188,3.228580951690674
1637487601021,-0.2190694510936737,9.29069995880127,3.228580951690674
1637487601040,,9.320627212524414,
1637487601041,-0.22266076505184174,,3.204638957977295
1637487601060,,9.294290542602539,
1637487601061,-0.15442600846290588,,3.248931646347046
1637487601081,-0.10055647045373917,9.26675796508789,3.2776620388031006
1637487601101,,9.251194953918457,
1637487601102,-0.08140286058187485,,3.3016040325164795
1637487601121,,9.279925346374512,
1637487601122,-0.11013327538967133,,3.2788591384887695
1637487601141,,9.29069995880127,
1637487601142,-0.13048399984836578,,3.2321722507476807
1637487601162,-0.08379705995321274,9.300276756286621,3.2106244564056396
1637487601181,,9.264363288879395,
1637487601182,-0.09576806426048279,,3.2573113441467285
1637487601201,,9.275136947631836,
1637487601202,-0.13527239859104156,,3.265691041946411
1637487601221,,9.308655738830566,
1637487601222,-0.12689268589019775,,3.265691041946411
1637487601241,,9.337387084960938,
1637487601242,-0.07541735470294952,,3.2309751510620117
1637487601261,,9.308655738830566,
1637487601262,-0.043095629662275314,,3.2321722507476807
1637487601282,,9.254786491394043,3.24414324760437
1637487601283,-0.016759412363171577,,
1637487601301,,9.23443603515625,
1637487601302,-0.004788403399288654,,3.2585084438323975
1637487601321,,9.255983352661133,
1637487601322,-0.061052143573760986,,3.24414324760437
1637487601341,,9.273940086364746,
1637487601342,-0.09457096457481384,,3.2130186557769775
1637487601362,,9.281123161315918,3.201047658920288
1637487601363,-0.040701430290937424,,
1637487601381,,9.247604370117188,
1637487601382,-0.015562310814857483,,3.228580951690674
1637487601401,,9.228450775146484,
1637487601402,0.0694318488240242,,3.220201253890991
1637487601421,,9.206902503967285,
1637487601422,0.10175357013940811,,3.245340347290039
1637487601441,,9.229647636413574,
1637487601442,0.03232172131538391,,3.2333693504333496
1637487601460,,9.272743225097656,
1637487601461,0.016759412363171577,,3.2369606494903564
1637487601481,0.05626374110579491,9.317035675048828,3.24414324760437
1637487601501,0.1173158809542656,9.313444137573242,3.1495723724365234
1637487601522,0.08738835901021957,9.321824073791504,3.250128746032715
1637487603086,0.08140286058187485,9.344569206237793,3.1064767837524414
1637487603100,,9.283516883850098,
1637487603101,-0.03950432687997818,,3.269282341003418
1637487603120,-0.05027823522686958,9.284713745117188,3.2632968425750732
1637487603140,,9.285911560058594,
1637487603141,-0.0454898327589035,,3.2333693504333496
1637487603160,-0.05985504388809204,9.283516883850098,3.1962592601776123
1637487603180,,9.277531623840332,
1637487603181,-0.04668693244457245,,3.226186752319336
1637487603200,,9.275136947631836,3.220201253890991
1637487603201,-0.023942016065120697,,
1637487603220,,9.275136947631836,
1637487603221,-0.04189852997660637,,3.226186752319336
1637487603240,,9.279925346374512,3.2585084438323975
1637487603241,-0.061052143573760986,,
1637487603260,,9.277531623840332,
1637487603261,-0.07422025501728058,,3.226186752319336
1637487603280,,9.246406555175781,
1637487603281,-0.002394201699644327,,3.2154128551483154
1637487603300,,9.276334762573242,3.288435935974121
1637487603301,-0.03232172131538391,,
1637487603320,,9.278728485107422,
1637487603321,-0.0802057534456253,,3.180696964263916
1637487603340,,9.253589630126953,
1637487603341,-0.043095629662275314,,3.2118215560913086
1637487603360,,9.245209693908691,3.3004069328308105
1637487603361,-0.047884032130241394,,
1637487603382,-0.06224924325942993,9.217676162719727,3.3016040325164795
1637487603400,,9.285911560058594,
1637487603401,-0.06464344263076782,,3.2154128551483154
1637487603421,,9.334992408752441,
1637487603422,-0.061052143573760986,,3.180696964263916
1637487603441,-0.05746084079146385,9.318233489990234,3.2369606494903564
1637487603461,-0.043095629662275314,9.282320022583008,3.2573113441467285
1637487603481,,9.253589630126953,
1637487603482,-0.043095629662275314,,3.251325845718384
1637487603501,,9.245209693908691,
1637487603502,-0.05985504388809204,,3.2585084438323975
1637487603521,,9.285911560058594,3.2788591384887695
1637487603522,-0.08140286058187485,,
1637487603541,,9.32302188873291,
1637487603543,-0.09816227108240128,,3.202244758605957
1637487603561,-0.16160862147808075,9.352949142456055,3.293224334716797
1637487603581,-0.15921440720558167,9.345766067504883,3.1962592601776123
1637487603600,,9.246406555175781,
1637487603601,-0.11611878126859665,,3.2597055435180664
1637487603620,,9.192537307739258,3.1878795623779297
1637487603621,-0.10534487664699554,,
1637487603641,-0.05027823522686958,9.208099365234375,3.226186752319336
1637487603663,,9.211690902709961,
1637487603664,-0.026336219161748886,,3.2573113441467285
1637487603681,,9.216479301452637,
1637487603682,-0.023942016065120697,,3.2776620388031006
1637487603700,-0.002394201699644327,9.228450775146484,3.242946147918701
1637487603721,,9.249998092651367,
1637487603722,0.016759412363171577,,3.226186752319336
1637487603741,,9.214085578918457,3.250128746032715
1637487603742,0.002394201699644327,,
1637487603761,,9.160215377807617,
1637487603762,-0.011971008032560349,,3.26688814163208
1637487603783,-0.028730420395731926,9.170989990234375,3.247734546661377
1637487603802,-0.020350715145468712,9.242815971374512,3.2573113441467285
1637487603821,,9.314641952514648,
1637487603822,-0.014365210197865963,,3.2764649391174316
1637487603841,,9.350554466247559,
1637487603842,-0.017956512048840523,,3.272873640060425
1637487603864,-0.05027823522686958,9.334992408752441,3.247734546661377
1637487603885,,9.296685218811035,
1637487603886,-0.10175357013940811,,3.228580951690674
1637487603901,,9.240421295166016,
1637487603902,-0.1280897855758667,,3.2393548488616943
1637487603921,,9.205705642700195,
1637487603922,-0.08978256583213806,,3.2393548488616943
1637487603941,,9.20091724395752,
1637487603942,-0.05626374110579491,,3.2525229454040527
1637487603961,,9.281123161315918,
1637487603962,-0.020350715145468712,,3.2525229454040527
1637487603983,-0.03232172131538391,9.363722801208496,3.290830135345459
1637487604001,,9.38048267364502,
1637487604002,-0.0454898327589035,,3.2800562381744385
1637487604024,,9.36013126373291,
1637487604025,-0.02513911761343479,,3.2620997428894043
1637487604041,,9.296685218811035,
1637487604042,-0.04668693244457245,,3.247734546661377
1637487605083,-0.11372458189725876,9.285911560058594,3.207033157348633
1637487605101,-0.05386953800916672,9.17936897277832,3.3937809467315674
1637487605120,,9.180566787719727,
1637487605121,-0.15801730751991272,,3.2573113441467285
1637487605140,-0.1364694982767105,9.187748908996582,3.2776620388031006
1637487605160,,9.232041358947754,3.3650505542755127
1637487605161,-0.12330138683319092,,
1637487605180,,9.252392768859863,
1637487605181,-0.05746084079146385,,3.423708438873291
1637487605200,,9.313444137573242,
1637487605201,-0.06823474913835526,,3.3315317630767822
1637487605220,,9.308655738830566,
1637487605221,-0.09576806426048279,,3.2968156337738037
1637487605241,-0.08499415963888168,9.257181167602539,3.3518824577331543
1637487605260,,9.194931983947754,
1637487605261,-0.061052143573760986,,3.37941575050354
1637487605280,,9.188945770263672,
1637487605281,-0.06823474913835526,,3.3674447536468506
1637487605300,,9.197325706481934,
1637487605301,-0.07422025501728058,,3.3518824577331543
1637487605320,,9.23443603515625,
1637487605321,-0.09696517139673233,,3.3291375637054443
1637487605341,,9.249998092651367,
1637487605342,-0.07182604819536209,,3.3279404640197754
1637487605363,,9.258378028869629,
1637487605364,-0.08619125932455063,,3.3506853580474854
1637487605381,,9.261969566345215,
1637487605382,-0.06344634294509888,,3.2776620388031006
1637487605401,,9.239224433898926,
1637487605402,-0.07781155407428741,,3.341108560562134
1637487605421,,9.2033109664917,
1637487605422,-0.11611878126859665,,3.3291375637054443
1637487605441,,9.220070838928223,
1637487605442,-0.11013327538967133,,3.362656354904175
1637487605461,,9.238027572631836,
1637487605462,-0.08619125932455063,,3.3877954483032227
1637487605481,,9.238027572631836,
1637487605482,-0.09816227108240128,,3.3267433643341064
1637487605501,,9.23443603515625,
1637487605502,-0.11252748221158981,,3.2968156337738037
1637487605521,,9.222464561462402,
1637487605522,-0.09816227108240128,,3.290830135345459
1637487605541,,9.232041358947754,
1637487605542,-0.08858546614646912,,3.317166566848755
1637487605561,,9.242815971374512,
1637487605562,-0.10534487664699554,,3.3279404640197754
1637487605583,,9.255983352661133,3.3291375637054443
1637487605584,-0.09696517139673233,,
1637487605601,,9.263166427612305,
1637487605602,-0.09457096457481384,,3.3039982318878174
1637487605621,-0.090979665517807,9.254786491394043,3.2956185340881348
1637487605643,-0.09217676520347595,9.240421295166016,3.336320161819458
1637487605661,,9.23323917388916,
1637487605662,-0.08379705995321274,,3.332728862762451
1637487605681,,9.244012832641602,
1637487605682,-0.07900865375995636,,3.269282341003418
1637487605701,-0.06703764945268631,9.253589630126953,3.2824504375457764
1637487605721,,9.240421295166016,
1637487605722,-0.03711012750864029,,3.288435935974121
1637487605741,,9.230844497680664,
1637487605742,-0.021547814831137657,,3.2992098331451416
1637487605761,-0.06344634294509888,9.229647636413574,3.293224334716797
1637487605781,-0.1041477769613266,9.228450775146484,3.357867956161499
1637487605802,,9.230844497680664,3.250128746032715
1637487605803,-0.11133038252592087,,
1637487605821,,9.226056098937988,
1637487605822,-0.04189852997660637,,3.3028011322021484
1637487605841,,9.247604370117188,3.3506853580474854
1637487605842,-0.0694318488240242,,
1637487605865,-0.09457096457481384,9.253589630126953,3.2321722507476807
1637487605881,,9.244012832641602,
1637487605882,-0.07422025501728058,,3.2788591384887695
1637487605901,,9.226056098937988,
1637487605902,-0.08978256583213806,,3.3423056602478027
1637487605922,,9.23443603515625,
1637487605923,-0.08259996026754379,,3.3303346633911133
1637487605941,,9.289502143859863,
1637487605942,-0.09935937076807022,,3.2309751510620117
1637487605962,,9.283516883850098,3.2154128551483154
1637487605963,-0.09696517139673233,,
1637487622089,,9.263166427612305,3.2632968425750732
1637487622090,-0.09816227108240128,,3.2824504375457764
1637487622103,,9.311050415039062,
1637487622104,-0.06344634294509888,,3.1675288677215576
1637487622120,,9.337387084960938,3.139995574951172
1637487622121,-0.04189852997660637,,
1637487622140,,9.373299598693848,3.075352191925049
1637487622141,-0.05746084079146385,,
1637487622160,,9.342175483703613,3.0777463912963867
1637487622161,-0.06584054976701736,,
1637487622181,-0.06823474913835526,9.332598686218262,3.1316158771514893
1637487622200,,9.312247276306152,
1637487622201,-0.05985504388809204,,3.139995574951172
1637487622220,,9.32421875,
1637487622221,-0.06464344263076782,,3.1495723724365234
1637487622240,,9.308655738830566,
1637487622241,-0.07781155407428741,,3.156754970550537
1637487622260,,9.331400871276855,
1637487622261,-0.07062894850969315,,3.138798475265503
1637487622280,,9.32541561126709,
1637487622281,-0.04189852997660637,,3.0825347900390625
1637487622300,,9.321824073791504,3.1471781730651855
1637487622301,-0.07422025501728058,,
1637487622320,,9.32302188873291,
1637487622321,-0.05267243832349777,,3.07415509223938
1637487622340,,9.30386734008789,
1637487622341,-0.05027823522686958,,3.160346269607544
1637487622360,,9.29189682006836,
1637487622361,-0.07422025501728058,,3.1052796840667725
1637487622380,,9.318233489990234,
1637487622381,-0.0347159244120121,,3.136404275894165
1637487622400,,9.343372344970703,
1637487622401,-0.03711012750864029,,3.1280245780944824
1637487622420,,9.355342864990234,
1637487622421,-0.05147533491253853,,3.1316158771514893
1637487622440,,9.345766067504883,
1637487622441,-0.05267243832349777,,3.1100680828094482
1637487622461,-0.04668693244457245,9.339780807495117,3.1304187774658203
1637487622480,,9.311050415039062,
1637487622481,-0.0586579404771328,,3.1316158771514893
1637487622500,,9.301473617553711,
1637487622501,-0.07182604819536209,,3.1483752727508545
1637487622520,,9.300276756286621,
1637487622521,-0.08259996026754379,,3.157952070236206
1637487622540,,9.317035675048828,
1637487622541,-0.08499415963888168,,3.135207176208496
1637487622560,,9.32421875,
1637487622561,-0.08738835901021957,,3.113659381866455
1637487622580,,9.333795547485352,
1637487622581,-0.0694318488240242,,3.114856481552124
1637487622600,,9.321824073791504,
1637487622601,,,3.1292216777801514
1637487622602,-0.0586579404771328,,
1637487622620,,9.320627212524414,
1637487622621,-0.06464344263076782,,3.1280245780944824
1637487622640,,9.314641952514648,
1637487622641,-0.07302315533161163,,3.134010076522827
1637487622661,-0.0694318488240242,9.312247276306152,3.1292216777801514
1637487622680,,9.333795547485352,3.1052796840667725
1637487622681,-0.05386953800916672,,
1637487622701,-0.06823474913835526,9.327810287475586,3.0885202884674072
1637487622721,-0.07182604819536209,9.32541561126709,3.135207176208496
1637487622740,,9.318233489990234,
1637487622741,-0.03711012750864029,,3.135207176208496
1637487622761,-0.043095629662275314,9.32421875,3.1316158771514893
1637487622781,-0.05746084079146385,9.32421875,3.1316158771514893
1637487622800,,9.333795547485352,
1637487622801,-0.1149216815829277,,3.043030261993408
1637487622820,,9.308655738830566,
1637487622821,-0.07062894850969315,,3.185485363006592
1637487622840,,9.32541561126709,
1637487622841,-0.02992752194404602,,3.1196448802948
1637487622860,,9.327810287475586,
1637487622861,-0.0933738648891449,,3.160346269607544
1637487622880,,9.32541561126709,
1637487622881,-0.07900865375995636,,3.072957992553711
1637487622900,,9.314641952514648,
1637487622901,-0.06823474913835526,,3.1531636714935303
1637487622920,,9.289502143859863,
1637487622921,-0.05626374110579491,,3.19865345954895
1637487622940,,9.312247276306152,
1637487622941,-0.04908113554120064,,3.1016883850097656
1637487622960,,9.340977668762207,
1637487622961,-0.05027823522686958,,3.0765492916107178
1637487622980,,9.317035675048828,
1637487622981,-0.05626374110579491,,3.1232361793518066
1637487623000,-0.06584054976701736,9.3026704788208,3.141192674636841
1637487623020,,9.307458877563477,
1637487623021,-0.06584054976701736,,3.157952070236206
1637487623040,,9.320627212524414,
1637487623041,-0.04668693244457245,,3.157952070236206
1637487623060,,9.32541561126709,3.1495723724365234
1637487623061,-0.05027823522686958,,
1637487623080,,9.329007148742676,
1637487623081,-0.05746084079146385,,3.159149169921875
1637487623100,,9.333795547485352,
1637487623101,-0.047884032130241394,,3.1076738834381104
1637487626086,,9.331400871276855,3.1064767837524414
1637487626087,-0.08858546614646912,,3.163937568664551
1637487626100,,9.311050415039062,
1637487626105,-0.0694318488240242,,3.136404275894165
1637487626120,,9.317035675048828,3.1423897743225098
1637487626121,-0.08259996026754379,,
1637487626140,,9.315838813781738,
1637487626141,-0.05985504388809204,,3.1256303787231445
1637487626160,,9.309853553771973,3.136404275894165
1637487626161,-0.06344634294509888,,
1637487626180,,9.315838813781738,
1637487626181,-0.06344634294509888,,3.1675288677215576
1637487626200,,9.318233489990234,
1637487626201,-0.08619125932455063,,3.090914487838745
1637487626220,,9.309853553771973,3.1196448802948
1637487626221,-0.08978256583213806,,
1637487626241,-0.07182604819536209,9.315838813781738,3.1232361793518066
1637487626260,,9.327810287475586,
1637487626261,-0.06703764945268631,,3.1423897743225098
1637487626280,,9.312247276306152,
1637487626281,-0.07661445438861847,,3.132812976837158
1637487626300,,9.329007148742676,
1637487626301,-0.13407529890537262,,3.0849289894104004
1637487626321,-0.07062894850969315,9.320627212524414,3.1663317680358887
1637487626340,,9.299078941345215,
1637487626341,-0.06823474913835526,,3.075352191925049
1637487626360,,9.317035675048828,
1637487626361,-0.11611878126859665,,3.1304187774658203
1637487626380,,9.312247276306152,
1637487626381,-0.08379705995321274,,3.0657753944396973
1637487626400,,9.319430351257324,3.114856481552124
1637487626401,-0.061052143573760986,,
1637487626420,,9.320627212524414,
1637487626421,-0.07781155407428741,,3.180696964263916
1637487626440,-0.08379705995321274,9.314641952514648,3.1675288677215576
1637487626461,-0.08619125932455063,9.343372344970703,3.09689998626709
1637487626480,,9.340977668762207,
1637487626481,-0.06703764945268631,,3.0873231887817383
1637487626500,,9.314641952514648,3.1280245780944824
1637487626501,-0.03950432687997818,,
1637487626520,,9.300276756286621,
1637487626521,-0.040701430290937424,,3.141192674636841
1637487626541,-0.06464344263076782,9.288305282592773,3.132812976837158
1637487626560,,9.29069995880127,
1637487626561,-0.06224924325942993,,3.1256303787231445
1637487626581,-0.08499415963888168,9.301473617553711,3.1280245780944824
1637487626601,,9.346963882446289,
1637487626602,-0.08978256583213806,,3.0370447635650635
1637487626620,,9.363722801208496,
1637487626621,-0.11252748221158981,,3.1423897743225098
1637487626642,,9.36013126373291,
1637487626643,-0.07182604819536209,,3.069366693496704
1637487626661,-0.040701430290937424,9.334992408752441,3.1914708614349365
1637487626680,,9.289502143859863,
1637487626681,-0.061052143573760986,,3.1268274784088135
1637487626701,,9.285911560058594,
1637487626702,-0.043095629662275314,,3.139995574951172
1637487626721,,9.297882080078125,
1637487626722,-0.028730420395731926,,3.139995574951172
1637487626741,-0.06224924325942993,9.314641952514648,3.1447839736938477
1637487626761,,9.337387084960938,
1637487626762,-0.08858546614646912,,3.135207176208496
1637487626782,,9.339780807495117,
1637487626783,-0.0694318488240242,,3.1423897743225098
1637487626801,,9.321824073791504,
1637487626802,-0.0694318488240242,,3.141192674636841
1637487626821,,9.285911560058594,
1637487626822,-0.06344634294509888,,3.163937568664551
1637487626842,-0.06584054976701736,9.281123161315918,3.1435868740081787
1637487626861,,9.301473617553711,
1637487626862,-0.0454898327589035,,3.1088709831237793
1637487638084,,9.321824073791504,
1637487638085,-0.047884032130241394,,3.1292216777801514
1637487638100,,9.245209693908691,
1637487638101,0.06584054976701736,,3.444059133529663
1637487638121,0.13168109953403473,9.244012832641602,3.384204149246216
1637487638140,0.07182604819536209,9.229647636413574,3.3423056602478027
1637487638161,0.028730420395731926,9.227252960205078,3.35667085647583
1637487638180,,9.23682975769043,
1637487638181,0.0454898327589035,,3.341108560562134
1637487638201,0.05027823522686958,9.239224433898926,3.377021551132202
1637487638221,0.0071826050989329815,9.249998092651367,3.420117139816284
1637487638240,,9.239224433898926,
1637487638241,-0.031124621629714966,,3.4129345417022705
1637487638261,-0.05746084079146385,9.232041358947754,3.4105403423309326
1637487638280,,9.238027572631836,
1637487638281,-0.015562310814857483,,3.4380736351013184
1637487638301,-0.013168109580874443,9.226056098937988,3.3315317630767822
1637487638321,-0.038307227194309235,9.23323917388916,3.314772367477417
1637487638340,,9.230844497680664,
1637487638341,-0.03232172131538391,,3.4105403423309326
1637487638361,-0.002394201699644327,9.215282440185547,3.405751943588257
1637487638381,,9.241618156433105,3.4308910369873047
1637487638382,0.05985504388809204,,
1637487638401,0.08140286058187485,9.264363288879395,3.3901896476745605
1637487638422,0.10534487664699554,9.296685218811035,3.3650505542755127
1637487638441,0.11013327538967133,9.252392768859863,3.3267433643341064
1637487638462,-0.07062894850969315,9.244012832641602,3.2824504375457764
1637487638481,,9.288305282592773,
1637487638482,-0.1628057211637497,,3.2357635498046875
1637487638502,,9.29309368133545,
1637487638503,-0.19033902883529663,,3.26688814163208
1637487638523,-0.15083470940589905,9.305065155029297,3.26688814163208
1637487638543,,9.29069995880127,
1637487638545,-0.13168109953403473,,3.2812533378601074
1637487638561,,9.251194953918457,
1637487638562,-0.09935937076807022,,3.314772367477417
1637487638581,,9.240421295166016,3.3446998596191406
1637487638582,-0.11611878126859665,,
1637487638601,,9.26675796508789,
1637487638602,-0.09217676520347595,,3.3494882583618164
1637487638621,,9.257181167602539,
1637487638622,-0.061052143573760986,,3.360262155532837
1637487638642,-0.05746084079146385,9.220070838928223,3.3746273517608643
1637487638662,-0.03711012750864029,9.245209693908691,3.3518824577331543
1637487638681,,9.26795482635498,3.3423056602478027
1637487638682,0.0071826050989329815,,
1637487638702,,9.259574890136719,3.317166566848755
1637487638703,0.03232172131538391,,
1637487638722,0.043095629662275314,9.26675796508789,3.294421434402466
1637487638742,0.08379705995321274,9.27034854888916,3.3231520652770996
1637487638761,,9.23682975769043,
1637487638762,0.1628057211637497,,3.338714361190796
1637487638782,,9.216479301452637,
1637487638783,0.08978256583213806,,3.3279404640197754
1637487638802,,9.251194953918457,
1637487638803,0.061052143573760986,,3.317166566848755
1637487638822,0.08978256583213806,9.285911560058594,3.2585084438323975
1637487638843,0.14604631066322327,9.264363288879395,3.287238836288452
1637487638862,,9.253589630126953,
1637487638863,0.09457096457481384,,3.3231520652770996
1637487638882,,9.257181167602539,3.2597055435180664
1637487638883,-0.0071826050989329815,,
1637487638902,,9.240421295166016,
1637487638903,-0.002394201699644327,,3.248931646347046
1637487638921,,9.240421295166016,
1637487638922,-0.06224924325942993,,3.337517261505127
1637487638941,,9.249998092651367,
1637487638942,-0.0347159244120121,,3.357867956161499
1637487638962,-0.005985504016280174,9.284713745117188,3.312378168106079
1637487638981,,9.278728485107422,
1637487638982,-0.05027823522686958,,3.2585084438323975
1637487639004,,9.271546363830566,
1637487639005,-0.07900865375995636,,3.293224334716797
1637487639022,-0.038307227194309235,9.277531623840332,3.2776620388031006
1637487639041,,9.249998092651367,
1637487639042,0.002394201699644327,,3.286041736602783
1637487639062,-0.07182604819536209,9.246406555175781,3.317166566848755
1637487639082,-0.08259996026754379,9.279925346374512,3.3207578659057617
1637487639103,-0.017956512048840523,9.285911560058594,3.307589530944824
1637487639123,-0.011971008032560349,9.263166427612305,3.3446998596191406
1637487639143,-0.05985504388809204,9.271546363830566,3.268085241317749
1637487639162,0.02992752194404602,9.261969566345215,3.3279404640197754
1637487639182,,9.20091724395752,
1637487639183,0.02753331884741783,,3.3267433643341064
1637487639203,-0.0035913025494664907,9.244012832641602,3.292027235031128
1637487639222,-0.005985504016280174,9.27034854888916,3.293224334716797
1637487639241,,9.265560150146484,3.2992098331451416
1637487639242,0.002394201699644327,,
1637487639262,0.026336219161748886,9.264363288879395,3.318363666534424
1637487639281,,9.271546363830566,
1637487639282,-0.009576806798577309,,3.338714361190796
1637487639302,-0.02992752194404602,9.29069995880127,3.314772367477417
1637487639322,,9.306262016296387,
1637487639323,-0.014365210197865963,,3.2848446369171143
1637487639341,,9.275136947631836,
1637487639342,-0.04429273307323456,,3.3016040325164795
1637487639362,-0.043095629662275314,9.254786491394043,3.3207578659057617
1637487639382,-0.011971008032560349,9.242815971374512,3.293224334716797
1637487639401,,9.222464561462402,
1637487639402,0.002394201699644327,,3.3063924312591553
1637487639423,-0.0071826050989329815,9.210494041442871,3.33392596244812
1637487639441,,9.227252960205078,
1637487639442,-0.002394201699644327,,3.3470940589904785
1637487639461,,9.260771751403809,
1637487639462,0.04668693244457245,,3.309983968734741
1637487639481,,9.257181167602539,3.2956185340881348
1637487639482,0.10773907601833344,,
1637487639501,,9.275136947631836,
1637487639502,0.15682020783424377,,3.31118106842041
1637487639521,,9.264363288879395,
1637487639522,0.18076223134994507,,3.338714361190796
1637487639541,,9.26795482635498,
1637487639542,0.2190694510936737,,3.3195607662200928
1637487639562,,9.26795482635498,
1637487639563,0.20111294090747833,,3.28963303565979
1637487639582,,9.3026704788208,3.2333693504333496
1637487639583,0.1496376097202301,,
1637487639601,,9.296685218811035,
1637487639602,0.09816227108240128,,3.2812533378601074
1637487639622,0.08619125932455063,9.198522567749023,3.3291375637054443
1637487662089,,9.192537307739258,
1637487662090,0.0933738648891449,,3.33392596244812
1637487662100,-0.12330138683319092,9.26675796508789,3.2369606494903564
1637487662121,-0.10295066982507706,9.240421295166016,3.265691041946411
1637487662140,,9.253589630126953,3.2788591384887695
1637487662141,-0.08978256583213806,,
1637487662160,,9.288305282592773,
1637487662161,-0.08738835901021957,,3.271676540374756
1637487662180,-0.0802057534456253,9.29309368133545,3.2992098331451416
1637487662200,,9.278728485107422,3.3063924312591553
1637487662201,-0.05386953800916672,,
1637487662220,,9.260771751403809,
1637487662221,-0.05267243832349777,,3.3315317630767822
1637487662241,-0.0694318488240242,9.251194953918457,3.2417490482330322
1637487662260,,9.232041358947754,
1637487662261,-0.05626374110579491,,3.1926679611206055
1637487662280,-0.06464344263076782,9.23563289642334,3.3063924312591553
1637487662300,,9.228450775146484,
1637487662301,-0.0802057534456253,,3.2824504375457764
1637487662321,-0.06584054976701736,9.279925346374512,3.2980127334594727
1637487662340,,9.285911560058594,
1637487662341,-0.0694318488240242,,3.2620997428894043
1637487662360,,9.257181167602539,
1637487662361,-0.07900865375995636,,3.2620997428894043
1637487662381,,9.238027572631836,
1637487662382,-0.08738835901021957,,3.26688814163208
1637487662401,,9.227252960205078,
1637487662402,-0.09696517139673233,,3.265691041946411
1637487662421,,9.23323917388916,
1637487662422,-0.1041477769613266,,3.26688814163208
1637487662441,,9.257181167602539,
1637487662442,-0.09457096457481384,,3.286041736602783
1637487662461,,9.26915168762207,
1637487662462,-0.09576806426048279,,3.2800562381744385
1637487662481,,9.257181167602539,
1637487662482,-0.090979665517807,,3.269282341003418
1637487662501,,9.23323917388916,
1637487662502,-0.08858546614646912,,3.2740707397460938
1637487662521,,9.228450775146484,
1637487662522,-0.06464344263076782,,3.286041736602783
1637487662541,,9.238027572631836,
1637487662542,-0.0586579404771328,,3.2824504375457764
1637487662562,-0.07182604819536209,9.272743225097656,3.268085241317749
1637487662581,,9.296685218811035,
1637487662582,,,3.288435935974121
1637487662583,-0.061052143573760986,,
1637487662603,,9.29309368133545,3.228580951690674
1637487662604,-0.07182604819536209,,
1637487662621,,9.251194953918457,
1637487662622,-0.08140286058187485,,3.2740707397460938
1637487662641,,9.241618156433105,
1637487662642,-0.0694318488240242,,3.2824504375457764
1637487662661,,9.251194953918457,
1637487662662,-0.08858546614646912,,3.293224334716797
1637487662681,,9.263166427612305,
1637487662682,-0.10893617570400238,,3.294421434402466
1637487662702,,9.287108421325684,3.1675288677215576
1637487662703,-0.1472434103488922,,
1637487662722,-0.023942016065120697,9.271546363830566,3.341108560562134
1637487662742,-0.0347159244120121,9.238027572631836,3.265691041946411
1637487662762,-0.10773907601833344,9.227252960205078,3.248931646347046
1637487662781,-0.07900865375995636,9.229647636413574,3.2357635498046875
1637487662800,,9.259574890136719,
1637487662801,-0.04668693244457245,,3.287238836288452
1637487662821,-0.05506663769483566,9.247604370117188,3.3303346633911133
1637487662842,-0.05746084079146385,9.260771751403809,3.268085241317749
1637487662860,,9.300276756286621,
1637487662861,,,3.250128746032715
1637487662881,,9.277531623840332,
1637487662882,-0.11013327538967133,,3.246537446975708
1637487662901,,9.261969566345215,
1637487662902,-0.1173158809542656,,3.270479440689087
1637487662922,-0.0933738648891449,9.242815971374512,3.2800562381744385
1637487662941,,9.255983352661133,
1637487662942,-0.1041477769613266,,3.286041736602783
1637487662962,-0.11372458189725876,9.264363288879395,3.288435935974121
1637487662981,,9.260771751403809,
1637487662982,-0.11851298063993454,,3.2836475372314453
1637487663001,,9.277531623840332,
1637487663002,-0.1173158809542656,,3.309983968734741
1637487663021,,9.26795482635498,
1637487663022,-0.1472434103488922,,3.2357635498046875
1637487663041,,9.26915168762207,
1637487663042,-0.10055647045373917,,3.2154128551483154
1637487663061,,9.251194953918457,
1637487663062,-0.10175357013940811,,3.270479440689087
1637487663082,,9.248801231384277,3.242946147918701
1637487663083,-0.09457096457481384,,
1637487663101,,9.26915168762207,
1637487663102,-0.05267243832349777,,3.2800562381744385
1637487663122,-0.05746084079146385,9.29189682006836,3.251325845718384
1637487663142,-0.06224924325942993,9.297882080078125,3.2405519485473633
1637487663161,,9.29189682006836,
1637487663162,-0.08379705995321274,,3.2369606494903564
1637487663182,-0.0802057534456253,9.272743225097656,3.220201253890991
1637487663202,-0.07900865375995636,9.277531623840332,3.2381577491760254
1637487667085,-0.07781155407428741,9.255983352661133,3.24414324760437
1637487667100,,9.27034854888916,
1637487667101,-0.08858546614646912,,3.268085241317749
1637487667120,,9.251194953918457,
1637487667121,-0.06344634294509888,,3.2836475372314453
1637487667141,-0.07422025501728058,9.3026704788208,3.201047658920288
1637487667160,,9.313444137573242,
1637487667161,-0.090979665517807,,3.1663317680358887
1637487667180,,9.296685218811035,
1637487667181,-0.09217676520347595,,3.2094273567199707
1637487667200,,9.277531623840332,
1637487667201,-0.07062894850969315,,3.226186752319336
1637487667221,-0.08140286058187485,9.29309368133545,3.2321722507476807
1637487667241,-0.08140286058187485,9.278728485107422,3.228580951690674
1637487667260,,9.299078941345215,
1637487667261,-0.08619125932455063,,3.2381577491760254
1637487667281,-0.0694318488240242,9.296685218811035,3.179499864578247
1637487667301,-0.09816227108240128,9.29069995880127,3.245340347290039
1637487667320,,9.277531623840332,
1637487667321,-0.04908113554120064,,3.227383852005005
1637487667341,-0.05626374110579491,9.263166427612305,3.223792552947998
1637487667360,,9.276334762573242,
1637487667361,-0.090979665517807,,3.1866824626922607
1637487667381,-0.07182604819536209,9.294290542602539,3.2142157554626465
1637487667400,,9.300276756286621,
1637487667401,-0.05626374110579491,,3.2142157554626465
1637487667424,-0.0586579404771328,9.307458877563477,3.204638957977295
1637487667441,,9.300276756286621,
1637487667442,-0.08379705995321274,,3.2118215560913086
1637487667461,,9.3026704788208,
1637487667462,-0.08140286058187485,,3.2130186557769775
1637487667481,,9.29309368133545,
1637487667482,-0.08140286058187485,,3.2130186557769775
1637487667501,,9.275136947631836,
1637487667502,-0.09696517139673233,,3.207033157348633
1637487667521,,9.26795482635498,
1637487667522,-0.08978256583213806,,3.2321722507476807
1637487667544,,9.26915168762207,
1637487667545,-0.10773907601833344,,3.2142157554626465
1637487667561,,9.289502143859863,
1637487667562,-0.10893617570400238,,3.1926679611206055
1637487667581,,9.300276756286621,
1637487667582,-0.09576806426048279,,3.1890766620635986
1637487667601,,9.29069995880127,
1637487667602,-0.08259996026754379,,3.1902737617492676
1637487667621,,9.29189682006836,
1637487667622,-0.08140286058187485,,3.2142157554626465
1637487667641,,9.294290542602539,
1637487667642,-0.09217676520347595,,3.22139835357666
1637487667662,-0.07661445438861847,9.281123161315918,3.2309751510620117
1637487667681,,9.29069995880127,3.179499864578247
1637487667682,-0.07541735470294952,,
1637487667702,-0.1041477769613266,9.283516883850098,3.185485363006592
1637487667721,,9.26795482635498,
1637487667722,-0.10055647045373917,,3.2118215560913086
1637487667741,,9.27034854888916,
1637487667742,-0.06584054976701736,,3.2082302570343018
1637487667761,,9.284713745117188,
1637487667762,-0.07900865375995636,,3.204638957977295
1637487667782,-0.1280897855758667,9.30386734008789,3.1866824626922607
1637487667801,,9.306262016296387,
1637487667802,-0.09576806426048279,,3.22139835357666
1637487667821,,9.255983352661133,
1637487667822,-0.06224924325942993,,3.1256303787231445
1637487667841,,9.248801231384277,
1637487667842,-0.10893617570400238,,3.251325845718384
1637487667861,,9.255983352661133,
1637487667862,-0.11013327538967133,,3.1423897743225098
1637487667881,,9.29189682006836,
1637487667882,-0.07182604819536209,,3.205836057662964
1637487667901,,9.284713745117188,
1637487667902,-0.08499415963888168,,3.2740707397460938
1637487667921,,9.29069995880127,3.2537200450897217
1637487667922,-0.07062894850969315,,
1637487667941,,9.319430351257324,
1637487667942,-0.09935937076807022,,3.1687259674072266
1637487667961,,9.305065155029297,
1637487667962,-0.10295066982507706,,3.1651346683502197
1637487667981,,9.26675796508789,
1637487667982,-0.11372458189725876,,3.2178070545196533
1637487668001,,9.245209693908691,
1637487668002,-0.09576806426048279,,3.242946147918701
1637487668021,,9.249998092651367,
1637487668022,-0.09457096457481384,,3.242946147918701
1637487668041,,9.276334762573242,
1637487668042,-0.10654197633266449,,3.2297780513763428
1637487668061,,9.284713745117188,
1637487668062,-0.11133038252592087,,3.2549171447753906
1637487668081,,9.29069995880127,
1637487668082,-0.10295066982507706,,3.2740707397460938
1637487668101,,9.258378028869629,
1637487668102,,,3.207033157348633
1637487668103,-0.10295066982507706,,
1637487668121,,9.253589630126953,
1637487668122,-0.0694318488240242,,3.199850559234619
1637487668142,-0.08978256583213806,9.226056098937988,3.245340347290039
1637487668161,,9.238027572631836,
1637487668162,-0.09576806426048279,,3.1950621604919434
1637487668181,,9.264363288879395,
1637487668182,-0.06703764945268631,,3.223792552947998
1637487674085,-0.08140286058187485,9.284713745117188,3.204638957977295
1637487674100,,9.317035675048828,
1637487674101,-0.08978256583213806,,3.2166099548339844
1637487674120,-0.10055647045373917,9.320627212524414,3.1974563598632812
1637487674140,,9.318233489990234,
1637487674141,-0.08379705995321274,,3.177105665206909
1637487674160,,9.289502143859863,
1637487674161,-0.07661445438861847,,3.2178070545196533
1637487674180,,9.26795482635498,
1637487674181,-0.06344634294509888,,3.2369606494903564
1637487674200,,9.261969566345215,
1637487674201,-0.05626374110579491,,3.2297780513763428
1637487674221,-0.0454898327589035,9.288305282592773,3.2166099548339844
1637487674241,-0.035913024097681046,9.299078941345215,3.2405519485473633
1637487674260,,9.3026704788208,
1637487674261,-0.033518824726343155,,3.2357635498046875
1637487674280,,9.281123161315918,
1637487674281,-0.014365210197865963,,3.2525229454040527
1637487674301,-0.03232172131538391,9.260771751403809,3.268085241317749
1637487674321,-0.021547814831137657,9.245209693908691,3.287238836288452
1637487674341,-0.043095629662275314,9.247604370117188,3.290830135345459
1637487674360,,9.285911560058594,
1637487674361,-0.0347159244120121,,3.199850559234619
1637487674380,,9.305065155029297,
1637487674381,-0.06703764945268631,,3.201047658920288
1637487674401,-0.05626374110579491,9.3026704788208,3.2381577491760254
1637487674420,,9.309853553771973,
1637487674421,-0.07781155407428741,,3.251325845718384
1637487674443,-0.08858546614646912,9.313444137573242,3.2297780513763428
1637487674461,,9.294290542602539,
1637487674462,-0.09696517139673233,,3.2549171447753906
1637487674481,,9.299078941345215,
1637487674482,-0.09217676520347595,,3.163937568664551
1637487674501,,9.279925346374512,
1637487674502,0.04189852997660637,,3.227383852005005
1637487674521,,9.287108421325684,
1637487674522,-0.05267243832349777,,3.1950621604919434
1637487674541,,9.209297180175781,
1637487674542,-0.08858546614646912,,3.242946147918701
1637487674561,,9.167398452758789,
1637487674562,-0.090979665517807,,3.3650505542755127
1637487674581,,9.139864921569824,
1637487674582,-0.10893617570400238,,3.3949780464172363
1637487674601,,9.163806915283203,
1637487674602,-0.07302315533161163,,3.4380736351013184
1637487674621,,9.264363288879395,
1637487674622,-0.0347159244120121,,3.3446998596191406
1637487674641,,9.283516883850098,
1637487674642,-0.011971008032560349,,3.290830135345459
1637487674661,,9.245209693908691,
1637487674662,-0.033518824726343155,,3.2788591384887695
1637487674681,,9.252392768859863,
1637487674682,-0.002394201699644327,,3.220201253890991
1637487674701,,9.272743225097656,
1637487674702,0.026336219161748886,,3.2381577491760254
1637487674721,,9.260771751403809,
1637487674722,0.0011971008498221636,,3.251325845718384
1637487674741,,9.238027572631836,
1637487674742,-0.026336219161748886,,3.3063924312591553
1637487674761,,9.26795482635498,
1637487674762,-0.07182604819536209,,3.2609026432037354
1637487674782,-0.10295066982507706,9.314641952514648,3.3315317630767822
1637487674801,,9.312247276306152,
1637487674802,-0.090979665517807,,3.2345664501190186
1637487674822,-0.07661445438861847,9.271546363830566,3.2597055435180664
1637487674841,,9.23682975769043,
1637487674842,-0.07422025501728058,,3.2381577491760254
1637487674861,,9.228450775146484,
1637487674862,-0.017956512048840523,,3.287238836288452
1637487674880,,9.278728485107422,
1637487674881,-0.02992752194404602,,3.2417490482330322
1637487674901,-0.07541735470294952,9.288305282592773,3.2082302570343018
1637487674921,-0.08499415963888168,9.287108421325684,3.207033157348633
1637487674942,-0.06464344263076782,9.296685218811035,3.2609026432037354
1637487674961,,9.287108421325684,
1637487674962,-0.09217676520347595,,3.207033157348633
1637487674983,-0.10055647045373917,9.273940086364746,3.2561142444610596
1637487692086,-0.08858546614646912,9.244012832641602,3.2956185340881348
1637487692100,,9.36013126373291,
1637487692101,-0.015562310814857483,,3.1208419799804688
1637487692121,,9.352949142456055,
1637487692122,-0.033518824726343155,,3.1483752727508545
1637487692140,,9.32661247253418,
1637487692141,-0.0694318488240242,,3.1926679611206055
1637487692160,-0.0694318488240242,9.329007148742676,3.19865345954895
1637487692180,,9.308655738830566,
1637487692181,-0.002394201699644327,,3.2178070545196533
1637487692200,,9.283516883850098,
1637487692201,0.061052143573760986,,3.1699230670928955
1637487692220,,9.27034854888916,
1637487692221,0.06823474913835526,,3.139995574951172
1637487692241,0.14484919607639313,9.26795482635498,3.177105665206909
1637487692260,,9.218873977661133,
1637487692261,0.05985504388809204,,3.205836057662964
1637487692281,0.031124621629714966,9.275136947631836,3.2106244564056396
1637487692300,0.061052143573760986,9.327810287475586,3.226186752319336
1637487692320,0.06823474913835526,9.32421875,3.1974563598632812
1637487692340,0.061052143573760986,9.342175483703613,3.179499864578247
1637487692363,0.06584054976701736,9.346963882446289,3.1519665718078613
1637487692381,0.06584054976701736,9.320627212524414,3.160346269607544
1637487692402,0.020350715145468712,9.297882080078125,3.161543369293213
1637487692421,,9.289502143859863,
1637487692422,-0.0011971008498221636,,3.1687259674072266
1637487692441,,9.275136947631836,
1637487692442,-0.02274491637945175,,3.183091163635254
1637487692462,,9.285911560058594,
1637487692463,-0.02753331884741783,,3.185485363006592
1637487692482,0.009576806798577309,9.288305282592773,3.178302764892578
1637487692503,,9.299078941345215,
1637487692504,0.0454898327589035,,3.1938650608062744
1637487692522,0.06224924325942993,9.300276756286621,3.2142157554626465
1637487692541,,9.300276756286621,
1637487692542,0.07900865375995636,,3.207033157348633
1637487692561,,9.289502143859863,
1637487692562,0.05506663769483566,,3.1902737617492676
1637487692582,,9.305065155029297,
1637487692583,0.043095629662275314,,3.1423897743225098
1637487692602,0.02753331884741783,9.321824073791504,3.1435868740081787
1637487692621,,9.312247276306152,
1637487692622,0.04908113554120064,,3.1878795623779297
1637487692643,,9.29309368133545,
1637487692644,0.08738835901021957,,3.1914708614349365
1637487692662,0.07182604819536209,9.299078941345215,3.205836057662964
1637487692681,,9.277531623840332,
1637487692682,0.06584054976701736,,3.2393548488616943
1637487692702,0.028730420395731926,9.305065155029297,3.1651346683502197
1637487692721,,9.301473617553711,
1637487692722,0.06344634294509888,,3.2118215560913086
1637487692741,0.0454898327589035,9.327810287475586,3.183091163635254
1637487692761,,9.338583946228027,3.1244332790374756
1637487692762,-0.014365210197865963,,
1637487692780,,9.301473617553711,
1637487692781,0.0071826050989329815,,3.112462282180786
1637487692801,0.038307227194309235,9.246406555175781,3.250128746032715
1637487692820,,9.197325706481934,
1637487692821,0.09576806426048279,,3.31118106842041
1637487692840,,9.254786491394043,
1637487692841,0.0933738648891449,,3.2393548488616943
1637487692861,,9.333795547485352,3.1507694721221924
1637487692862,0.06224924325942993,,
1637487692882,0.03232172131538391,9.36013126373291,3.139995574951172
1637487692902,,9.348160743713379,
1637487692903,0.02992752194404602,,3.157952070236206
1637487692921,,9.331400871276855,
1637487692922,0.0347159244120121,,3.1531636714935303
1637487692941,,9.317035675048828,
1637487692942,0.019153613597154617,,3.161543369293213
1637487692961,,9.313444137573242,
1637487692962,0.004788403399288654,,3.1723172664642334
1637487692981,,9.311050415039062,
1637487692982,0.043095629662275314,,3.1507694721221924
1637487693002,0.0347159244120121,9.333795547485352,3.1938650608062744
1637487693021,,9.354146003723145,
1637487693022,,,3.0837318897247314
1637487693041,,9.338583946228027,
1637487693042,-0.002394201699644327,,3.1244332790374756
1637487693062,,9.314641952514648,
1637487693063,-0.05386953800916672,,3.1292216777801514
1637487693082,-0.05027823522686958,9.307458877563477,3.183091163635254
1637487693102,-0.002394201699644327,9.30386734008789,3.178302764892578
1637487693122,-0.002394201699644327,9.311050415039062,3.155557870864868
1637487693142,-0.028730420395731926,9.334992408752441,3.163937568664551
1637487693161,,9.348160743713379,
1637487693162,-0.017956512048840523,,3.1735143661499023
1637487693181,,9.331400871276855,
1637487693182,-0.013168109580874443,,3.1711201667785645
1637487693201,,9.29189682006836,3.1687259674072266
1637487693202,0.002394201699644327,,
1637487693221,,9.258378028869629,
1637487693222,-0.005985504016280174,,3.1902737617492676
1637487693240,,9.26915168762207,
1637487693241,-0.009576806798577309,,3.183091163635254
1637487693260,,9.319430351257324,
1637487693261,-0.023942016065120697,,3.1435868740081787
1637487693280,,9.329007148742676,
1637487693281,0.011971008032560349,,3.1244332790374756
1637487693300,,9.309853553771973,
1637487693301,0.004788403399288654,,3.1100680828094482
1637487693320,,9.278728485107422,
1637487693321,-0.011971008032560349,,3.09689998626709
1637487693340,,9.277531623840332,3.116053581237793
1637487693341,0.0011971008498221636,,
1637487693360,0.0071826050989329815,9.307458877563477,3.1519665718078613
1637487693380,0.021547814831137657,9.361329078674316,3.157952070236206
1637487693401,0.016759412363171577,9.398438453674316,3.135207176208496
1637487693421,,9.394847869873047,
1637487693422,0.040701430290937424,,3.159149169921875
