timestamp,bluetooth_le-F1:5F:C5:86:3E:30-Resistance-1,bluetooth_le-F1:5F:C5:86:3E:30-Accelerometer X-0,bluetooth_le-F1:5F:C5:86:3E:30-Accelerometer Y-0,bluetooth_le-F1:5F:C5:86:3E:30-Accelerometer Z-0,bluetooth_le-F1:5F:C5:86:3E:30-Humidity-0,bluetooth_le-F1:5F:C5:86:3E:30-Temperature-1
1637760577069,,0.22705078125,1.2451171875,9.87060546875,,26.00518798828125
1637760577113,54.58290336470751,,,,83.01620483398438,
1637760577157,,0.21240234375,1.229248046875,,,
1637760577158,,,,9.7900390625,,26.00518798828125
1637760577202,,,,,83.02944946289062,
1637760577204,55.670102654918374,,,,,
1637760577293,,0.208740234375,1.30859375,9.862060546875,,
1637760577294,,,,,82.98638916015625,26.022994995117188
1637760577295,54.58290336470751,,,,,
1637760577384,,0.18798828125,1.265869140625,9.77294921875,,
1637760577385,54.58290336470751,,,,83.04932403564453,26.040803909301758
1637760577518,,0.2001953125,1.220703125,9.78515625,,
1637760577519,,,,,,26.022994995117188
1637760577520,,,,,82.97314453125,
1637760577521,54.58290336470751,,,,,
1637760577609,,0.216064453125,,,,
1637760577610,,,1.25244140625,9.83154296875,,26.00518798828125
1637760577613,,,,,83.01289367675781,
1637760577614,54.58290336470751,,,,,
1637760577698,,0.19775390625,1.224365234375,,,
1637760577699,,,,9.783935546875,,
1637760577700,,,,,83.06257629394531,25.969572067260742
1637760577701,54.58290336470751,,,,,
1637760577838,,0.2001953125,,,,
1637760577839,,,1.275634765625,9.859619140625,82.93341064453125,26.040803909301758
1637760577840,54.58290336470751,,,,,
1637760577923,,0.18798828125,,,,
1637760577924,,,1.309814453125,9.837646484375,83.02944946289062,26.022994995117188
1637760577926,54.58290336470751,,,,,
1637760578013,,0.191650390625,1.236572265625,9.76318359375,,25.951765060424805
1637760578058,,,,,82.96983337402344,
1637760578065,54.58290336470751,,,,,
1637760578149,,0.213623046875,1.2890625,9.81689453125,,
1637760578151,,,,,82.90359497070312,26.00518798828125
1637760578157,54.58290336470751,,,,,
1637760578238,,0.21240234375,1.23291015625,9.82421875,,26.00518798828125
1637760578239,,,,,82.97977447509766,
1637760578240,54.58290336470751,,,,,
1637760578373,,0.220947265625,1.287841796875,9.893798828125,,
1637760578374,,,,,82.96983337402344,26.00518798828125
1637760578375,54.58290336470751,,,,,
1637760578463,,0.203857421875,1.259765625,9.84375,,26.022994995117188
1637760578464,,,,,82.94996643066406,
1637760578509,55.670102654918374,,,,,
1637760578598,,0.21728515625,1.239013671875,9.833984375,,
1637760578599,,,,,82.89035034179688,26.00518798828125
1637760578600,55.670102654918374,,,,,
1637760578688,,0.198974609375,1.275634765625,9.859619140625,,25.969572067260742
1637760578689,,,,,82.87710571289062,
1637760578690,55.670102654918374,,,,,
1637760578823,,0.179443359375,,,,
1637760578824,,,1.229248046875,9.77294921875,,
1637760578825,56.75954782293517,,,,82.9267807006836,25.969572067260742
1637760578913,,0.196533203125,1.258544921875,9.781494140625,,
1637760578915,,,,,82.95658874511719,25.98737907409668
1637760578916,55.670102654918374,,,,,
1637760579003,,0.20263671875,1.253662109375,9.84130859375,,25.98737907409668
1637760579004,,,,,82.92346954345703,
1637760579005,56.75954782293517,,,,,
1637760579138,,0.21484375,1.260986328125,9.8583984375,,
1637760579139,,,,,,26.022994995117188
1637760579140,56.75954782293517,,,,82.87710571289062,
1637760579228,,0.191650390625,,,,
1637760579229,,,1.253662109375,9.849853515625,,26.00518798828125
1637760579230,,,,,82.9267807006836,
1637760579231,56.75954782293517,,,,,
1637760579318,,0.17578125,,,,
1637760579319,,,1.275634765625,9.781494140625,,25.969572067260742
1637760579363,,,,,82.86053466796875,
1637760579364,56.75954782293517,,,,,
1637760579453,,0.22216796875,1.246337890625,,,
1637760579454,,,,9.7705078125,,26.00518798828125
1637760579455,56.75954782293517,,,,82.88372039794922,
1637760579543,,0.189208984375,1.24755859375,,,
1637760579544,,,,9.732666015625,,25.98737907409668
1637760579545,55.670102654918374,,,,82.85391998291016,
1637760579678,,0.2294921875,1.292724609375,9.88037109375,,25.98737907409668
1637760579679,,,,,82.8472900390625,
1637760579680,56.75954782293517,,,,,
1637760579769,,0.211181640625,1.2646484375,9.891357421875,,25.951765060424805
1637760579770,,,,,82.80754852294922,
1637760579771,56.75954782293517,,,,,
1637760579858,,0.189208984375,1.290283203125,9.7705078125,,26.00518798828125
1637760579859,,,,,82.81085968017578,
1637760579860,56.75954782293517,,,,,
1637760579993,,0.206298828125,1.265869140625,9.814453125,,25.98737907409668
1637760579994,,,,,82.90691375732422,
1637760579995,56.75954782293517,,,,,
1637760580083,,0.20751953125,1.239013671875,9.7998046875,,
1637760580084,,,,,82.78436279296875,26.022994995117188
1637760580085,56.75954782293517,,,,,
1637760580173,,0.20263671875,1.2451171875,9.886474609375,,
1637760580174,,,,,,25.969572067260742
1637760580218,56.75954782293517,,,,82.77774047851562,
1637760580308,,0.2001953125,1.297607421875,9.888916015625,,25.969572067260742
1637760580309,,,,,82.7677993774414,
1637760580310,55.670102654918374,,,,,
1637760580398,,0.185546875,1.246337890625,9.766845703125,,26.00518798828125
1637760580443,,,,,82.77442932128906,
1637760580444,55.670102654918374,,,,,
1637760580533,,0.2001953125,1.30859375,9.796142578125,,25.933956146240234
1637760580578,,,,,82.75786590576172,
1637760580579,55.670102654918374,,,,,
1637760580623,,0.2099609375,1.23291015625,9.830322265625,,
1637760580624,,,,,,25.98737907409668
1637760580668,,,,,82.88040924072266,
1637760580669,55.670102654918374,,,,,
1637760580758,,0.21728515625,1.26953125,9.852294921875,,25.98737907409668
1637760580803,,,,,82.78436279296875,
1637760580804,54.58290336470751,,,,,
1637760580893,,0.1806640625,1.239013671875,9.788818359375,,
1637760580894,,,,,,26.022994995117188
1637760580983,,,,,82.72805786132812,
1637760580984,55.670102654918374,,,,,
1637760581073,,0.213623046875,1.248779296875,9.837646484375,,25.98737907409668
1637760581118,,,,,82.73136901855469,
1637760581119,55.670102654918374,,,,,
1637760581208,,0.23193359375,1.2744140625,9.8486328125,,25.969572067260742
1637760581253,,,,,82.77111053466797,
1637760581254,55.670102654918374,,,,,
1637760581298,,0.20751953125,1.2744140625,9.871826171875,,
1637760581299,,,,,82.75455474853516,26.00518798828125
1637760581389,55.670102654918374,,,,,
1637760581433,,0.20751953125,,,,
1637760581434,,,1.282958984375,9.8291015625,82.70487976074219,25.98737907409668
1637760581478,54.58290336470751,,,,,
1637760581568,,0.196533203125,1.226806640625,9.80224609375,,
1637760581569,,,,,82.69163513183594,25.951765060424805
1637760581571,54.58290336470751,,,,,
1637760581658,,0.205078125,1.20849609375,9.849853515625,,
1637760581659,,,,,82.6220703125,25.969572067260742
1637760581660,53.49794028725878,,,,,
1637760581793,,0.201416015625,1.258544921875,9.84619140625,,
1637760581794,,,,,82.68169403076172,26.040803909301758
1637760581795,54.58290336470751,,,,,
1637760581883,,0.20263671875,1.29638671875,9.83642578125,,
1637760581884,,,,,,26.040803909301758
1637760581885,,,,,82.69824981689453,
1637760581886,54.58290336470751,,,,,
1637760581973,,0.2001953125,1.279296875,9.8193359375,,
1637760581974,,,,,82.64525604248047,25.98737907409668
1637760581975,54.58290336470751,,,,,
1637760582109,,0.21240234375,1.270751953125,9.781494140625,,26.00518798828125
1637760582110,,,,,82.721435546875,
1637760582154,54.58290336470751,,,,,
1637760582198,,0.1904296875,1.2255859375,9.77783203125,,
1637760582199,,,,,82.66844177246094,25.933956146240234
1637760582243,54.58290336470751,,,,,
1637760582333,,0.196533203125,1.2646484375,9.7705078125,,
1637760582334,,,,,82.61213684082031,25.98737907409668
1637760582335,55.670102654918374,,,,,
1637760582423,,0.20263671875,1.29150390625,9.869384765625,,
1637760582424,,,,,,26.040803909301758
1637760582468,,,,,82.5955810546875,
1637760582469,54.58290336470751,,,,,
1637760582558,,0.2099609375,1.25,9.832763671875,,
1637760582559,,,,,,26.00518798828125
1637760582560,55.670102654918374,,,,82.6419448852539,
1637760582648,,0.21484375,,,,
1637760582649,,,1.307373046875,9.888916015625,,26.00518798828125
1637760582650,,,,,82.6220703125,
1637760582651,55.670102654918374,,,,,
1637760582783,,0.23193359375,,,,
1637760582784,,,1.322021484375,9.896240234375,,26.022994995117188
1637760582785,54.58290336470751,,,,82.60551452636719,
1637760582873,,0.181884765625,1.256103515625,9.766845703125,,26.00518798828125
1637760582874,,,,,82.66513061523438,
1637760582875,54.58290336470751,,,,,
1637760582963,,0.198974609375,1.2890625,9.794921875,,25.98737907409668
1637760582964,,,,,82.61544799804688,
1637760582965,54.58290336470751,,,,,
1637760583098,,0.191650390625,1.240234375,9.81689453125,,25.98737907409668
1637760583099,,,,,82.64525604248047,
1637760583100,54.58290336470751,,,,,
1637760583188,,0.213623046875,,,,
1637760583189,,,1.246337890625,9.852294921875,82.63533020019531,26.00518798828125
1637760583190,55.670102654918374,,,,,
1637760583279,,0.2099609375,1.319580078125,9.921875,,26.040803909301758
1637760583280,,,,,82.63863372802734,
1637760583282,55.670102654918374,,,,,
1637760583416,,0.17578125,1.268310546875,9.786376953125,,26.022994995117188
1637760583417,,,,,82.61213684082031,
1637760583418,56.75954782293517,,,,,
1637760583503,,0.19287109375,1.280517578125,9.771728515625,,26.00518798828125
1637760583504,,,,,82.55583190917969,
1637760583505,55.670102654918374,,,,,
1637760583593,,0.198974609375,1.241455078125,9.788818359375,,26.00518798828125
1637760583594,,,,,82.57239532470703,
1637760583596,55.670102654918374,,,,,
1637760583727,,0.19775390625,,,,
1637760583728,,,1.231689453125,9.79248046875,82.60882568359375,26.058610916137695
1637760583729,56.75954782293517,,,,,
1637760583818,,0.220947265625,1.2451171875,9.844970703125,82.54920959472656,26.022994995117188
1637760583819,56.75954782293517,,,,,
1637760583908,,0.191650390625,1.248779296875,9.80224609375,,26.040803909301758
1637760583953,,,,,82.52272033691406,
1637760583998,56.75954782293517,,,,,
1637760584043,,0.184326171875,1.2744140625,9.801025390625,,26.00518798828125
1637760584044,,,,,82.6021957397461,
1637760584088,56.75954782293517,,,,,
1637760584178,,0.201416015625,1.3037109375,9.86328125,,26.022994995117188
1637760584181,56.75954782293517,,,,82.56908416748047,
1637760584268,,0.213623046875,1.2548828125,9.82666015625,,
1637760584269,,,,,,26.022994995117188
1637760584270,,,,,82.53596496582031,
1637760584313,55.670102654918374,,,,,
1637760584404,,0.196533203125,1.290283203125,9.78759765625,,26.022994995117188
1637760584405,,,,,82.52272033691406,
1637760584406,55.670102654918374,,,,,
1637760584494,,0.20263671875,1.25,9.82666015625,,25.98737907409668
1637760584539,56.75954782293517,,,,82.52933502197266,
1637760584585,,0.205078125,1.214599609375,9.81689453125,,25.98737907409668
1637760584718,,,,,82.49952697753906,
1637760584719,56.75954782293517,,,,,
1637760584763,,0.206298828125,1.270751953125,9.853515625,,26.00518798828125
1637760584812,56.75954782293517,,,,82.50614929199219,
1637760584899,,0.2001953125,1.268310546875,9.886474609375,,
1637760584900,,,,,,25.969572067260742
1637760584943,56.75954782293517,,,,82.57569885253906,
1637760584988,,0.2001953125,1.263427734375,9.815673828125,,26.00518798828125
1637760585033,56.75954782293517,,,,82.52933502197266,
1637760585123,,0.233154296875,1.285400390625,9.859619140625,,
1637760585124,,,,,,26.00518798828125
1637760585168,,,,,82.50614929199219,
1637760585169,56.75954782293517,,,,,
1637760585213,,0.203857421875,1.259765625,9.814453125,,26.022994995117188
1637760585258,56.75954782293517,,,,82.54589080810547,
1637760585348,,0.184326171875,1.270751953125,9.815673828125,,26.00518798828125
1637760585349,,,,,82.4962158203125,
1637760585350,56.75954782293517,,,,,
1637760585438,,0.185546875,1.285400390625,9.81201171875,,26.022994995117188
1637760585528,,,,,82.48958587646484,
1637760585529,56.75954782293517,,,,,
1637760585573,,0.208740234375,1.2744140625,9.87548828125,,
1637760585574,,,,,82.50614929199219,26.00518798828125
1637760585618,55.670102654918374,,,,,
1637760585708,,0.19775390625,1.248779296875,9.798583984375,,
1637760585709,,,,,,26.022994995117188
1637760585710,55.670102654918374,,,,82.45978546142578,
1637760585798,,0.191650390625,1.256103515625,9.79248046875,,25.951765060424805
1637760585799,,,,,82.44984436035156,
1637760585801,56.75954782293517,,,,,
1637760585933,,0.1904296875,,,,
1637760585934,,,1.258544921875,9.862060546875,82.45315551757812,25.98737907409668
1637760585937,56.75954782293517,,,,,
1637760586023,,0.201416015625,1.263427734375,9.80224609375,,
1637760586024,,,,,82.50283813476562,26.022994995117188
1637760586025,56.75954782293517,,,,,
1637760586114,,0.21484375,1.28173828125,9.8291015625,,26.022994995117188
1637760586115,57.851236933657574,,,,82.41011047363281,
1637760586248,,0.198974609375,1.26708984375,,,
1637760586249,,,,9.805908203125,,
1637760586250,,,,,,26.022994995117188
1637760586251,,,,,82.42996978759766,
1637760586293,57.851236933657574,,,,,
1637760586339,,0.194091796875,1.23291015625,,,
1637760586383,56.75954782293517,,,,,
1637760586473,,0.198974609375,1.263427734375,9.783935546875,,26.00518798828125
1637760586474,,,,,82.40348052978516,
1637760586475,56.75954782293517,,,,,
1637760586564,,0.2197265625,1.27197265625,9.888916015625,,26.00518798828125
1637760586608,,,,,82.40678405761719,
1637760586609,56.75954782293517,,,,,
1637760586699,,0.208740234375,1.27197265625,9.847412109375,,
1637760586700,,,,,82.3968505859375,25.98737907409668
1637760586701,56.75954782293517,,,,,
1637760586788,,0.20263671875,,,,
1637760586789,,,1.273193359375,9.8095703125,,26.040803909301758
1637760586790,56.75954782293517,,,,82.34717559814453,
1637760586923,,0.2001953125,1.2841796875,9.788818359375,,25.98737907409668
1637760586924,,,,,82.36705017089844,
1637760586925,56.75954782293517,,,,,
1637760587013,,0.179443359375,1.209716796875,9.822998046875,,26.022994995117188
1637760587014,,,,,82.44322204589844,
1637760587015,56.75954782293517,,,,,
1637760587104,,0.206298828125,1.275634765625,9.84619140625,,26.040803909301758
1637760587105,,,,,82.37366485595703,
1637760587106,55.670102654918374,,,,,
1637760587193,,0.208740234375,,,,
1637760587194,,,1.268310546875,9.857177734375,,26.040803909301758
1637760587238,,,,,82.4200439453125,
1637760587240,56.75954782293517,,,,,
1637760587330,,0.213623046875,1.312255859375,9.876708984375,,
1637760587373,,,,,,26.058610916137695
1637760587374,,,,,82.40348052978516,
1637760587375,56.75954782293517,,,,,
1637760587419,,0.186767578125,1.3134765625,9.803466796875,,26.040803909301758
1637760587420,,,,,82.40678405761719,
1637760587465,55.670102654918374,,,,,
1637760587554,,0.196533203125,1.246337890625,9.76318359375,82.42666625976562,26.040803909301758
1637760587556,55.670102654918374,,,,,
1637760587644,,0.203857421875,1.23046875,9.82421875,,
1637760587645,,,,,,25.98737907409668
1637760587688,,,,,82.37698364257812,
1637760587689,54.58290336470751,,,,,
1637760587778,,0.18798828125,1.240234375,9.815673828125,,
1637760587779,,,,,82.39022827148438,26.040803909301758
1637760587780,54.58290336470751,,,,,
1637760587870,,0.21240234375,1.32080078125,9.88525390625,,
1637760587871,,,,,82.42335510253906,26.022994995117188
1637760587873,54.58290336470751,,,,,
1637760587959,,0.213623046875,1.253662109375,9.8486328125,,26.022994995117188
1637760588003,,,,,82.45315551757812,
1637760588004,54.58290336470751,,,,,
1637760588094,,0.19775390625,1.28173828125,9.783935546875,,26.058610916137695
1637760588139,,,,,82.38360595703125,
1637760588140,54.58290336470751,,,,,
1637760588184,,0.206298828125,1.22314453125,9.80712890625,,26.058610916137695
1637760588185,,,,,82.36373901367188,
1637760588229,54.58290336470751,,,,,
1637760588319,,0.211181640625,1.224365234375,9.842529296875,,26.058610916137695
1637760588320,,,,,82.32398986816406,
1637760588321,54.58290336470751,,,,,
1637760588408,,0.203857421875,1.25244140625,9.869384765625,,26.00518798828125
1637760588409,,,,,82.34386444091797,
1637760588410,54.58290336470751,,,,,
1637760588544,,0.203857421875,1.229248046875,9.888916015625,,26.022994995117188
1637760588545,,,,,82.37366485595703,
1637760588546,53.49794028725878,,,,,
1637760588634,,0.1953125,1.239013671875,9.774169921875,,26.022994995117188
1637760588635,,,,,82.370361328125,
1637760588637,53.49794028725878,,,,,
1637760588723,,0.19287109375,1.226806640625,9.7509765625,,26.00518798828125
1637760588724,,,,,82.35710906982422,
1637760588725,53.49794028725878,,,,,
1637760588858,,0.206298828125,1.265869140625,9.86572265625,,
1637760588859,,,,,,26.058610916137695
1637760588861,,,,,82.46308898925781,
1637760588862,53.49794028725878,,,,,
1637760588950,,0.216064453125,,,,
1637760588951,,,1.23779296875,9.82177734375,,26.040803909301758
1637760588952,,,,,82.2908706665039,
1637760588953,53.49794028725878,,,,,
1637760589039,,0.216064453125,1.236572265625,9.893798828125,,26.040803909301758
1637760589084,,,,,82.2908706665039,
1637760589086,53.49794028725878,,,,,
1637760589175,,0.2001953125,1.282958984375,9.8193359375,,
1637760589176,,,,,,26.040803909301758
1637760589219,,,,,82.40348052978516,
1637760589221,53.49794028725878,,,,,
1637760589264,,0.21728515625,1.241455078125,9.83642578125,,
1637760589265,,,,,,26.040803909301758
1637760589266,,,,,82.39353942871094,
1637760589309,54.58290336470751,,,,,
1637760589398,,0.205078125,1.268310546875,9.818115234375,,26.058610916137695
1637760589399,,,,,82.32730102539062,
1637760589400,54.58290336470751,,,,,
1637760589489,,0.203857421875,1.28662109375,9.84375,,
1637760589490,,,,,,26.076417922973633
1637760589533,,,,,82.34386444091797,
1637760589534,54.58290336470751,,,,,
1637760589623,,0.18798828125,1.26220703125,9.825439453125,,26.058610916137695
1637760589624,,,,,82.33723449707031,
1637760589625,54.58290336470751,,,,,
1637760589714,,0.19775390625,1.270751953125,9.832763671875,,
1637760589715,,,,,,26.00518798828125
1637760589716,,,,,82.31405639648438,
1637760589717,54.58290336470751,,,,,
1637760589849,,0.198974609375,1.25,9.791259765625,,26.040803909301758
1637760589851,,,,,82.370361328125,
1637760589852,55.670102654918374,,,,,
1637760589939,,0.19287109375,1.260986328125,9.801025390625,,
1637760589940,,,,,82.35380554199219,26.040803909301758
1637760589942,54.58290336470751,,,,,
1637760590029,,0.216064453125,1.268310546875,9.853515625,,
1637760590030,,,,,,26.076417922973633
1637760590032,,,,,82.34054565429688,
1637760590033,55.670102654918374,,,,,
1637760590163,,0.21240234375,1.273193359375,9.8095703125,,
1637760590164,,,,,82.33723449707031,26.058610916137695
1637760590165,54.58290336470751,,,,,
1637760590253,,0.185546875,1.28173828125,9.8291015625,,
1637760590254,,,,,82.33061218261719,26.076417922973633
1637760590255,55.670102654918374,,,,,
1637760590344,,0.206298828125,1.280517578125,,,
1637760590345,,,,9.85107421875,,26.040803909301758
1637760590346,,,,,82.28092956542969,
1637760590347,55.670102654918374,,,,,
1637760590479,,0.2001953125,1.298828125,9.8291015625,,26.058610916137695
1637760590480,,,,,82.35380554199219,
1637760590481,55.670102654918374,,,,,
1637760590569,,0.223388671875,1.259765625,9.840087890625,,26.058610916137695
1637760590571,55.670102654918374,,,,82.31405639648438,
1637760590659,,0.19775390625,,,,
1637760590660,,,1.23291015625,9.79248046875,,26.040803909301758
1637760590661,,,,,82.32398986816406,
1637760590662,55.670102654918374,,,,,
1637760590794,,0.206298828125,1.234130859375,9.844970703125,,26.094226837158203
1637760590795,,,,,82.30743408203125,
1637760590797,55.670102654918374,,,,,
1637760590884,,0.19775390625,1.268310546875,9.89013671875,,
1637760590887,,,,,82.32398986816406,26.022994995117188
1637760590888,55.670102654918374,,,,,
1637760590974,,0.2001953125,1.246337890625,9.822998046875,,26.040803909301758
1637760591018,,,,,82.32398986816406,
1637760591064,54.58290336470751,,,,,
1637760591109,,0.211181640625,1.27685546875,9.8583984375,,26.022994995117188
1637760591110,,,,,82.30411529541016,
1637760591154,54.58290336470751,,,,,
1637760591243,,0.1953125,1.297607421875,9.892578125,,
1637760591244,,,,,82.30411529541016,26.022994995117188
1637760591245,55.670102654918374,,,,,
1637760591333,,0.201416015625,1.278076171875,9.82421875,,26.022994995117188
1637760591334,,,,,82.23786926269531,
1637760591335,55.670102654918374,,,,,
1637760591473,,0.206298828125,1.239013671875,9.83642578125,,
1637760591474,55.670102654918374,,,,82.23125457763672,26.040803909301758
1637760591560,54.58290336470751,0.1953125,1.24755859375,9.761962890625,82.24781036376953,26.040803909301758
1637760591648,,0.1806640625,1.253662109375,9.7998046875,,26.058610916137695
1637760591649,,,,,82.23456573486328,
1637760591650,54.58290336470751,,,,,
1637760591783,,0.21484375,1.28173828125,9.864501953125,,26.058610916137695
1637760591785,,,,,82.20475769042969,
1637760591786,53.49794028725878,,,,,
1637760591873,,0.2099609375,1.246337890625,9.874267578125,,
1637760591876,53.49794028725878,,,,82.31074523925781,26.00518798828125
1637760591964,,0.2099609375,1.263427734375,9.85595703125,,
1637760591965,,,,,,26.040803909301758
1637760592008,,,,,82.23456573486328,
1637760592009,53.49794028725878,,,,,
1637760592099,,0.203857421875,1.2451171875,9.820556640625,,
1637760592100,,,,,,26.058610916137695
1637760592144,,,,,82.27430725097656,
1637760592145,53.49794028725878,,,,,
1637760592191,,0.20263671875,1.248779296875,9.793701171875,,26.058610916137695
1637760592192,,,,,82.30411529541016,
1637760592233,54.58290336470751,,,,,
1637760592324,,0.194091796875,1.28173828125,9.805908203125,,
1637760592325,,,,,82.27099609375,26.076417922973633
1637760592326,53.49794028725878,,,,,
1637760592459,,0.19287109375,1.265869140625,9.8828125,,
1637760592460,,,,,82.27099609375,26.058610916137695
1637760592462,53.49794028725878,,,,,
1637760592548,,0.213623046875,1.270751953125,9.9072265625,,26.022994995117188
1637760592549,,,,,82.23786926269531,
1637760592550,53.49794028725878,,,,,
1637760592639,,0.189208984375,1.231689453125,9.80712890625,,
1637760592640,,,,,,26.076417922973633
1637760592641,,,,,82.23125457763672,
1637760592642,53.49794028725878,,,,,
1637760592775,,0.191650390625,1.25244140625,9.82421875,,26.058610916137695
1637760592776,,,,,82.20806884765625,
1637760592778,53.49794028725878,,,,,
1637760592864,,0.1904296875,1.2451171875,9.801025390625,,26.058610916137695
1637760592865,,,,,82.21138000488281,
1637760592867,54.58290336470751,,,,,
1637760592953,,0.18798828125,1.253662109375,,,
1637760592954,,,,9.779052734375,82.16169738769531,26.058610916137695
1637760592955,54.58290336470751,,,,,
1637760593089,,0.205078125,1.236572265625,9.857177734375,,26.094226837158203
1637760593090,,,,,82.16169738769531,
1637760593092,54.58290336470751,,,,,
1637760593178,,0.194091796875,,,,
1637760593179,,,1.2890625,9.8876953125,82.16500854492188,26.094226837158203
1637760593180,54.58290336470751,,,,,
1637760593269,,0.198974609375,1.278076171875,9.81201171875,,
1637760593270,,,,,,26.094226837158203
1637760593271,,,,,82.2213134765625,
1637760593272,55.670102654918374,,,,,
1637760593404,,0.184326171875,1.539306640625,9.830322265625,,
1637760593405,,,,,,26.058610916137695
1637760593406,,,,,82.24449920654297,
1637760593408,55.670102654918374,,,,,
1637760593494,,0.19775390625,1.251220703125,9.76806640625,,26.058610916137695
1637760593495,,,,,82.16169738769531,
1637760593539,55.670102654918374,,,,,
1637760593584,,0.224609375,1.285400390625,,,
1637760593586,,,,9.879150390625,82.15507507324219,26.094226837158203
1637760593630,56.75954782293517,,,,,
1637760593719,,0.194091796875,1.231689453125,,,
1637760593720,,,,9.788818359375,82.21469116210938,26.058610916137695
1637760593722,56.75954782293517,,,,,
1637760593854,,0.181884765625,1.2451171875,9.78271484375,,26.058610916137695
1637760593855,,,,,82.11532592773438,
1637760593856,55.670102654918374,,,,,
1637760593944,,0.194091796875,1.209716796875,9.801025390625,,26.076417922973633
1637760593945,,,,,82.20144653320312,
1637760593946,55.670102654918374,,,,,
1637760594033,,0.179443359375,1.2255859375,9.793701171875,,26.076417922973633
1637760594034,,,,,82.14845275878906,
1637760594035,55.670102654918374,,,,,
1637760594168,,0.206298828125,1.231689453125,9.852294921875,,26.058610916137695
1637760594169,,,,,82.23125457763672,
1637760594170,55.670102654918374,,,,,
1637760594258,,0.206298828125,,,,
1637760594259,,,1.302490234375,9.86083984375,,26.076417922973633
1637760594260,,,,,82.15176391601562,
1637760594262,56.75954782293517,,,,,
1637760594349,,0.194091796875,1.2939453125,9.78271484375,,26.11203384399414
1637760594351,,,,,82.19813537597656,
1637760594352,55.670102654918374,,,,,
1637760594484,,0.196533203125,1.268310546875,9.805908203125,,26.076417922973633
1637760594485,,,,,82.08221435546875,
1637760594486,55.670102654918374,,,,,
1637760594574,,0.2099609375,1.246337890625,9.830322265625,,26.040803909301758
1637760594575,,,,,82.11532592773438,
1637760594576,55.670102654918374,,,,,
1637760594663,,0.205078125,1.241455078125,9.881591796875,,
1637760594664,,,,,,26.094226837158203
1637760594709,,,,,82.19813537597656,
1637760594711,55.670102654918374,,,,,
1637760594799,,0.1953125,1.312255859375,9.847412109375,,26.094226837158203
1637760594801,55.670102654918374,,,,82.16831970214844,
1637760594888,,0.194091796875,1.275634765625,9.82666015625,,
1637760594889,,,,,82.15176391601562,26.094226837158203
1637760594890,55.670102654918374,,,,,
1637760595023,,0.211181640625,,,,
1637760595024,,,1.28173828125,9.814453125,,26.076417922973633
1637760595068,,,,,82.15176391601562,
1637760595069,54.58290336470751,,,,,
1637760595113,,0.184326171875,1.229248046875,9.82177734375,,
1637760595114,,,,,82.12858581542969,26.11203384399414
1637760595159,54.58290336470751,,,,,
1637760595249,,0.21728515625,1.282958984375,9.84619140625,,26.094226837158203
1637760595250,,,,,82.16500854492188,
1637760595251,55.670102654918374,,,,,
1637760595384,,0.211181640625,1.298828125,9.853515625,,26.076417922973633
1637760595385,,,,,82.18156433105469,
1637760595386,55.670102654918374,,,,,
1637760595474,,0.22216796875,,,,
1637760595475,,,,,,26.058610916137695
1637760595476,,,,,82.13851928710938,
1637760595477,55.670102654918374,,,,,
1637760595564,,0.208740234375,1.243896484375,9.85595703125,,26.11203384399414
1637760595565,,,,,82.15507507324219,
1637760595566,55.670102654918374,,,,,
1637760595699,,0.1904296875,1.27685546875,9.8046875,,
1637760595700,,,,,,26.076417922973633
1637760595701,,,,,82.09877014160156,
1637760595702,55.670102654918374,,,,,
1637760595789,,0.205078125,1.270751953125,9.77294921875,,
1637760595790,,,,,,26.076417922973633
1637760595791,,,,,82.13520050048828,
1637760595792,55.670102654918374,,,,,
1637760595878,,0.198974609375,1.246337890625,9.82177734375,,26.094226837158203
1637760595879,,,,,82.14845275878906,
1637760595880,55.670102654918374,,,,,
1637760596014,,0.21484375,1.30126953125,9.903564453125,,26.094226837158203
1637760596059,,,,,82.13851928710938,
1637760596060,55.670102654918374,,,,,
1637760596104,,0.198974609375,1.240234375,9.810791015625,,
1637760596105,,,,,82.08883666992188,26.094226837158203
1637760596150,55.670102654918374,,,,,
1637760596239,,0.196533203125,1.29638671875,9.827880859375,,26.11203384399414
1637760596240,,,,,82.10208129882812,
1637760596241,55.670102654918374,,,,,
1637760596329,,0.213623046875,1.259765625,9.869384765625,,26.022994995117188
1637760596374,,,,,82.13851928710938,
1637760596375,55.670102654918374,,,,,
1637760596464,,0.17578125,1.220703125,9.815673828125,,
1637760596465,,,,,,26.022994995117188
1637760596466,,,,,82.05239868164062,
1637760596467,55.670102654918374,,,,,
1637760596554,,0.184326171875,1.239013671875,9.776611328125,82.08883666992188,26.058610916137695
1637760596555,55.670102654918374,,,,,
1637760596689,,0.19775390625,1.234130859375,9.82177734375,,
1637760596690,,,,,,26.076417922973633
1637760596691,,,,,82.02922058105469,
1637760596693,55.670102654918374,,,,,
1637760596778,,0.20263671875,1.243896484375,9.837646484375,,26.094226837158203
1637760596779,,,,,82.05239868164062,
1637760596780,56.75954782293517,,,,,
1637760596869,,0.2099609375,1.268310546875,9.852294921875,,
1637760596870,,,,,,26.076417922973633
1637760596872,,,,,82.03915405273438,
1637760596873,56.75954782293517,,,,,
1637760597003,,0.189208984375,1.241455078125,9.866943359375,,26.022994995117188
1637760597004,,,,,82.0755844116211,
1637760597005,55.670102654918374,,,,,
1637760597096,,0.1953125,1.260986328125,9.793701171875,,26.058610916137695
1637760597097,55.670102654918374,,,,82.03584289550781,
1637760597184,,0.224609375,1.32080078125,9.8583984375,,26.058610916137695
1637760597229,,,,,82.06233978271484,
1637760597230,55.670102654918374,,,,,
1637760597319,,0.21240234375,1.220703125,9.8388671875,,
1637760597320,,,,,,26.076417922973633
1637760597321,,,,,82.05239868164062,
1637760597322,55.670102654918374,,,,,
1637760597409,,0.216064453125,1.270751953125,9.891357421875,,
1637760597410,,,,,,26.094226837158203
1637760597411,,,,,81.99940490722656,
1637760597413,56.75954782293517,,,,,
1637760597499,,0.184326171875,1.28662109375,9.85595703125,,26.040803909301758
1637760597544,,,,,82.08221435546875,
1637760597545,55.670102654918374,,,,,
1637760597635,,0.186767578125,1.23779296875,9.77783203125,,
1637760597636,,,,,,26.094226837158203
1637760597678,,,,,81.97953796386719,
1637760597679,55.670102654918374,,,,,
1637760597724,,0.186767578125,1.256103515625,9.813232421875,,
1637760597725,,,,,,26.058610916137695
1637760597726,,,,,81.97953796386719,
1637760597770,54.58290336470751,,,,,
1637760597858,,0.181884765625,1.273193359375,9.827880859375,,26.094226837158203
1637760597859,,,,,82.05570983886719,
1637760597860,55.670102654918374,,,,,
1637760597949,,0.198974609375,1.27685546875,9.84130859375,,26.094226837158203
1637760597994,,,,,82.08221435546875,
1637760597996,56.75954782293517,,,,,
1637760598086,,0.189208984375,1.265869140625,9.781494140625,,
1637760598087,55.670102654918374,,,,82.02259063720703,26.129840850830078
1637760598174,,0.20263671875,1.260986328125,9.8291015625,,26.076417922973633
1637760598175,,,,,82.02590942382812,
1637760598177,55.670102654918374,,,,,
1637760598309,,0.203857421875,1.202392578125,9.822998046875,,
1637760598310,,,,,,26.094226837158203
1637760598311,,,,,82.0656509399414,
1637760598312,55.670102654918374,,,,,
1637760598399,,0.22705078125,1.287841796875,9.827880859375,,
1637760598400,,,,,82.00934600830078,26.11203384399414
1637760598401,55.670102654918374,,,,,
1637760598490,,0.216064453125,1.275634765625,9.830322265625,,26.11203384399414
1637760598533,,,,,82.03915405273438,
1637760598534,54.58290336470751,,,,,
1637760598623,,0.18798828125,1.24267578125,9.771728515625,,26.094226837158203
1637760598627,54.58290336470751,,,,82.0457763671875,
1637760598717,,0.216064453125,1.30126953125,9.840087890625,,26.076417922973633
1637760598718,,,,,82.07228088378906,
1637760598719,54.58290336470751,,,,,
1637760598804,,0.20263671875,1.29150390625,9.85107421875,82.01927947998047,26.076417922973633
1637760598806,54.58290336470751,,,,,
1637760598938,,0.224609375,,,,
1637760598939,,,1.2548828125,9.864501953125,82.0755844116211,26.076417922973633
1637760598940,54.58290336470751,,,,,
1637760599028,,0.225830078125,,,,
1637760599029,,,1.314697265625,9.854736328125,,26.11203384399414
1637760599030,,,,,82.05902099609375,
1637760599031,54.58290336470751,,,,,
1637760599119,,0.1806640625,1.258544921875,9.74365234375,,
1637760599121,54.58290336470751,,,,82.03915405273438,26.11203384399414
1637760599253,,0.1904296875,1.268310546875,9.862060546875,,
1637760599254,,,,,82.00603485107422,26.11203384399414
1637760599255,55.670102654918374,,,,,
1637760599343,,0.198974609375,1.278076171875,9.88037109375,,
1637760599344,55.670102654918374,,,,81.98947143554688,26.094226837158203
1637760599434,,0.19775390625,1.2548828125,9.874267578125,,26.094226837158203
1637760599478,55.670102654918374,,,,82.0490951538086,
1637760599574,,0.218505859375,1.285400390625,9.87060546875,,
1637760599575,55.670102654918374,,,,81.97953796386719,26.094226837158203
1637760599658,,0.174560546875,1.1962890625,9.736328125,,26.129840850830078
1637760599706,,,,,82.01597595214844,
1637760599707,54.58290336470751,,,,,
1637760599794,,0.18310546875,1.270751953125,9.79736328125,,26.094226837158203
1637760599838,55.670102654918374,,,,82.01597595214844,
1637760599883,,0.196533203125,0.965576171875,9.80224609375,,26.11203384399414
1637760599928,,,,,82.00934600830078,
1637760599929,55.670102654918374,,,,,
1637760600018,,0.167236328125,1.25244140625,9.74609375,,26.094226837158203
1637760600108,,,,,81.98616027832031,
1637760600109,55.670102654918374,,,,,
1637760600198,,0.191650390625,1.2548828125,9.808349609375,,26.11203384399414
1637760600243,55.670102654918374,,,,82.01264953613281,
1637760600334,,0.20263671875,1.2744140625,9.803466796875,,26.076417922973633
1637760600378,,,,,81.9662857055664,
1637760600379,55.670102654918374,,,,,
1637760600423,,0.201416015625,1.279296875,9.791259765625,,26.094226837158203
1637760600468,55.670102654918374,,,,81.99940490722656,
1637760600559,,0.1904296875,1.251220703125,9.818115234375,,
1637760600603,,,,,81.92654418945312,26.094226837158203
1637760600648,56.75954782293517,0.201416015625,1.282958984375,9.7900390625,,
1637760600693,,,,,,26.11203384399414
1637760600694,,,,,81.97291564941406,
1637760600739,56.75954782293517,,,,,
1637760600783,,0.2099609375,1.241455078125,9.83642578125,,26.094226837158203
1637760600828,56.75954782293517,,,,81.98616027832031,
1637760600918,,0.208740234375,1.2939453125,9.903564453125,,
1637760600919,,,,,,26.076417922973633
1637760600963,56.75954782293517,,,,81.94309997558594,
1637760601008,,0.208740234375,1.258544921875,9.835205078125,,26.058610916137695
1637760601053,,,,,81.919921875,
1637760601054,56.75954782293517,,,,,
1637760601144,,0.196533203125,1.239013671875,9.77294921875,,26.11203384399414
1637760601188,,,,,81.93316650390625,
1637760601189,56.75954782293517,,,,,
1637760601278,,0.20263671875,,,,
1637760601279,,,1.23291015625,9.825439453125,,26.094226837158203
1637760601323,56.75954782293517,,,,81.91329956054688,
1637760601369,,0.203857421875,1.2744140625,9.81689453125,,26.076417922973633
1637760601417,,,,,81.91661071777344,
1637760601418,57.851236933657574,,,,,
1637760601503,,0.1953125,1.2451171875,9.781494140625,,
1637760601504,,,,,,26.129840850830078
1637760601549,56.75954782293517,,,,81.96297454833984,
1637760601594,,0.1953125,1.214599609375,9.766845703125,,26.129840850830078
1637760601638,,,,,81.98616027832031,
1637760601639,57.851236933657574,,,,,
1637760601728,,0.201416015625,1.292724609375,9.820556640625,,
1637760601729,,,,,,26.094226837158203
1637760601908,56.75954782293517,,,,81.9662857055664,
1637760601998,,0.186767578125,1.287841796875,9.854736328125,,
1637760601999,,,,,,26.11203384399414
1637760602133,,,,,81.95967102050781,
1637760602134,57.851236933657574,,,,,
1637760602223,,0.16845703125,1.253662109375,9.815673828125,,
1637760602224,,,,,,26.11203384399414
1637760602268,,,,,81.99609375,
1637760602269,56.75954782293517,,,,,
1637760602358,,0.1953125,1.240234375,9.781494140625,,26.129840850830078
1637760602493,,,,,82.01927947998047,
1637760602494,57.851236933657574,,,,,
1637760602538,,0.191650390625,1.25732421875,9.801025390625,,
1637760602539,,,,,,26.094226837158203
1637760602628,,,,,82.00603485107422,
1637760602629,57.851236933657574,,,,,
1637760602673,,0.235595703125,1.30859375,9.893798828125,,26.129840850830078
1637760602763,,,,,81.9696044921875,
1637760602764,57.851236933657574,,,,,
1637760602808,,0.205078125,1.273193359375,9.871826171875,,
1637760602809,,,,,,26.11203384399414
1637760602853,,,,,82.01264953613281,
1637760602854,56.75954782293517,,,,,
1637760602943,,0.205078125,1.26953125,9.8681640625,,26.11203384399414
1637760602988,,,,,81.90336608886719,
1637760602989,56.75954782293517,,,,,
1637760603078,,0.21484375,1.292724609375,9.8779296875,,
1637760603079,,,,,,26.094226837158203
1637760603168,56.75954782293517,,,,82.01264953613281,
1637760603220,,0.206298828125,1.239013671875,9.84619140625,,26.14764976501465
1637760603258,56.75954782293517,,,,81.98284912109375,
1637760603349,,0.1904296875,1.24755859375,9.844970703125,,26.11203384399414
1637760603441,56.75954782293517,,,,81.9497299194336,
1637760603485,,0.19775390625,1.207275390625,9.854736328125,,
1637760603528,,,,,,26.11203384399414
1637760603529,,,,,82.01597595214844,
1637760603573,55.670102654918374,,,,,
1637760603618,,0.201416015625,1.265869140625,9.869384765625,,
1637760603619,,,,,,26.129840850830078
1637760603663,55.670102654918374,,,,82.04246520996094,
1637760603753,,0.21728515625,1.30859375,9.90234375,,26.11203384399414
1637760603843,55.670102654918374,,,,82.03253173828125,
1637760603889,,0.220947265625,1.26220703125,9.918212890625,,26.129840850830078
1637760603978,55.670102654918374,,,,82.06895446777344,
1637760604023,,0.18798828125,1.279296875,9.84375,,26.129840850830078
1637760604068,,,,,81.96297454833984,
1637760604069,55.670102654918374,,,,,
1637760604158,,0.206298828125,1.224365234375,9.871826171875,,26.11203384399414
1637760604203,,,,,82.02922058105469,
1637760604249,55.670102654918374,,,,,
1637760604250,,0.194091796875,1.25,9.8388671875,,
1637760604293,,,,,,26.11203384399414
1637760604294,,,,,82.04246520996094,
1637760604339,55.670102654918374,,,,,
1637760604383,,0.203857421875,1.275634765625,9.837646484375,,
1637760604384,,,,,,26.14764976501465
1637760604429,55.670102654918374,,,,82.02922058105469,
1637760604518,,0.225830078125,1.23291015625,9.86328125,,26.094226837158203
1637760604563,,,,,82.03253173828125,
1637760604564,55.670102654918374,,,,,
1637760604608,,0.208740234375,1.20849609375,9.82421875,,26.129840850830078
1637760604653,,,,,82.07889556884766,
1637760604654,54.58290336470751,,,,,
1637760604743,,0.201416015625,1.226806640625,9.89013671875,,26.129840850830078
1637760604788,,,,,82.01264953613281,
1637760604789,54.58290336470751,,,,,
1637760604833,,0.21240234375,1.29150390625,9.827880859375,,
1637760604834,,,,,,26.129840850830078
1637760604878,,,,,82.01927947998047,
1637760604879,54.58290336470751,,,,,
1637760604968,,0.211181640625,1.256103515625,,,
1637760604969,,,,9.818115234375,,26.129840850830078
1637760605013,,,,,82.01597595214844,
1637760605014,54.58290336470751,,,,,
1637760605058,,0.21484375,1.265869140625,9.857177734375,,26.094226837158203
1637760605103,,,,,82.02922058105469,
1637760605104,55.670102654918374,,,,,
1637760605283,,0.198974609375,1.2548828125,9.791259765625,,26.094226837158203
1637760605328,,,,,82.03915405273438,
1637760605329,55.670102654918374,,,,,
1637760605508,,0.22216796875,1.265869140625,9.791259765625,,
1637760605509,,,,,,26.11203384399414
1637760605553,,,,,82.05239868164062,
1637760605554,55.670102654918374,,,,,
1637760605688,,0.20263671875,1.23779296875,9.832763671875,,26.165456771850586
1637760605733,,,,,81.98947143554688,
1637760605823,,0.1904296875,1.282958984375,9.793701171875,,26.129840850830078
1637760605869,,,,,82.04246520996094,
1637760605872,56.75954782293517,,,,,
1637760605913,,0.19775390625,1.26708984375,9.853515625,,
1637760605914,,,,,,26.14764976501465
1637760605958,,,,,82.03584289550781,
1637760605959,56.75954782293517,,,,,
1637760606048,,0.216064453125,1.285400390625,9.78271484375,,26.11203384399414
1637760606095,,,,,82.00603485107422,
1637760606096,56.75954782293517,,,,,
1637760606138,,0.2001953125,1.258544921875,9.884033203125,,26.094226837158203
1637760606183,,,,,82.0457763671875,
1637760606184,56.75954782293517,,,,,
1637760606273,,0.1904296875,1.221923828125,9.85107421875,,26.129840850830078
1637760606318,56.75954782293517,,,,82.06233978271484,
1637760606363,,0.20263671875,1.246337890625,9.825439453125,,
1637760606364,,,,,,26.165456771850586
1637760606453,,,,,82.11201477050781,
1637760606454,57.851236933657574,,,,,
1637760606498,,0.211181640625,1.2548828125,9.8779296875,,26.11203384399414
1637760606543,,,,,82.05239868164062,
1637760606545,57.851236933657574,,,,,
1637760606633,,0.205078125,1.278076171875,9.837646484375,,26.129840850830078
1637760606634,,,,,82.03915405273438,
1637760606635,56.75954782293517,,,,,
1637760606768,,0.211181640625,1.241455078125,9.83642578125,,26.11203384399414
1637760606769,,,,,82.10208129882812,
1637760606770,57.851236933657574,,,,,
1637760606858,,0.196533203125,1.236572265625,9.832763671875,,
1637760606859,,,,,82.0755844116211,26.11203384399414
1637760606860,57.851236933657574,,,,,
1637760606948,,0.19775390625,1.236572265625,9.79736328125,,
1637760606949,,,,,82.06233978271484,26.094226837158203
1637760606950,57.851236933657574,,,,,
1637760607039,,0.196533203125,1.239013671875,9.754638671875,,26.14764976501465
1637760607084,,,,,82.07889556884766,
1637760607085,57.851236933657574,,,,,
1637760607174,,0.1953125,1.256103515625,9.835205078125,,26.129840850830078
1637760607218,,,,,82.05902099609375,
1637760607220,57.851236933657574,,,,,
1637760607264,,0.201416015625,1.295166015625,9.871826171875,,
1637760607265,,,,,82.02259063720703,26.11203384399414
1637760607308,56.75954782293517,,,,,
1637760607398,,0.191650390625,1.287841796875,9.776611328125,,
1637760607399,,,,,82.095458984375,26.11203384399414
1637760607400,57.851236933657574,,,,,
1637760607489,,0.185546875,1.229248046875,9.84375,,
1637760607490,,,,,,26.11203384399414
1637760607491,,,,,82.05902099609375,
1637760607494,56.75954782293517,,,,,
1637760607623,,0.19775390625,1.26708984375,9.835205078125,,26.14764976501465
1637760607624,56.75954782293517,,,,82.12195587158203,
1637760607713,,0.21728515625,1.2646484375,9.8486328125,,26.129840850830078
1637760607714,,,,,82.11532592773438,
1637760607715,56.75954782293517,,,,,
1637760607803,,0.172119140625,1.253662109375,9.7998046875,,26.11203384399414
1637760607804,,,,,82.05570983886719,
1637760607805,55.670102654918374,,,,,
1637760607938,,0.1708984375,1.25,9.86572265625,,26.165456771850586
1637760607939,55.670102654918374,,,,82.06233978271484,
1637760608028,,0.201416015625,1.219482421875,9.810791015625,,26.14764976501465
1637760608029,,,,,82.10540008544922,
1637760608030,55.670102654918374,,,,,
1637760608118,,0.201416015625,1.26708984375,9.835205078125,,
1637760608119,,,,,,26.129840850830078
1637760608163,54.58290336470751,,,,82.0656509399414,
1637760608253,,0.220947265625,1.292724609375,9.844970703125,,
1637760608254,,,,,,26.14764976501465
1637760608255,55.670102654918374,,,,82.13520050048828,
1637760608343,,0.196533203125,1.30615234375,9.783935546875,,
1637760608344,,,,,,26.094226837158203
1637760608346,,,,,82.04246520996094,
1637760608347,55.670102654918374,,,,,
1637760608478,,0.205078125,1.241455078125,9.835205078125,,26.11203384399414
1637760608479,,,,,82.06233978271484,
1637760608480,55.670102654918374,,,,,
1637760608568,,0.2099609375,1.25244140625,9.8388671875,,26.129840850830078
1637760608569,55.670102654918374,,,,82.12195587158203,
1637760608658,,0.1953125,1.214599609375,9.793701171875,,
1637760608659,,,,,82.03915405273438,26.14764976501465
1637760608663,55.670102654918374,,,,,
1637760608794,,0.208740234375,1.2451171875,9.832763671875,,26.094226837158203
1637760608795,,,,,82.03915405273438,
1637760608796,55.670102654918374,,,,,
1637760608883,,0.2099609375,1.282958984375,9.825439453125,,
1637760608884,,,,,82.00271606445312,26.14764976501465
1637760608885,55.670102654918374,,,,,
1637760608973,,0.20263671875,1.260986328125,9.86572265625,,26.129840850830078
1637760609019,,,,,82.07889556884766,
1637760609020,55.670102654918374,,,,,
1637760609108,,0.2099609375,1.28173828125,9.86083984375,,
1637760609109,,,,,82.0656509399414,26.129840850830078
1637760609110,54.58290336470751,,,,,
1637760609198,,0.20263671875,1.23779296875,9.813232421875,,26.129840850830078
1637760609199,,,,,82.06233978271484,
1637760609200,54.58290336470751,,,,,
1637760609333,,0.218505859375,1.256103515625,9.853515625,,26.129840850830078
1637760609378,54.58290336470751,,,,82.05239868164062,
1637760609423,,0.203857421875,1.243896484375,9.832763671875,,26.14764976501465
1637760609424,,,,,82.08221435546875,
1637760609468,54.58290336470751,,,,,
1637760609558,,0.21240234375,1.28662109375,9.85595703125,,26.129840850830078
1637760609559,,,,,82.095458984375,
1637760609560,54.58290336470751,,,,,
1637760609648,,0.2001953125,1.2939453125,9.803466796875,,
1637760609649,,,,,,26.11203384399414
1637760609694,55.670102654918374,,,,82.0755844116211,
1637760609783,,0.19775390625,1.24755859375,9.8046875,,
1637760609784,,,,,,26.129840850830078
1637760609829,55.670102654918374,,,,82.09877014160156,
1637760609873,,0.191650390625,1.263427734375,9.80712890625,,
1637760609874,,,,,,26.094226837158203
1637760609918,55.670102654918374,,,,82.0755844116211,
1637760610008,,0.213623046875,1.25732421875,9.844970703125,,
1637760610009,,,,,,26.129840850830078
1637760610143,,,,,82.0490951538086,
1637760610146,55.670102654918374,,,,,
1637760610188,,0.19287109375,1.27197265625,9.779052734375,,26.165456771850586
1637760610233,,,,,82.05239868164062,
1637760610234,55.670102654918374,,,,,
1637760610323,,0.21728515625,1.2841796875,9.89501953125,,
1637760610324,,,,,,26.14764976501465
1637760610369,55.670102654918374,,,,82.00603485107422,
1637760610413,,0.24169921875,1.318359375,9.91455078125,,
1637760610414,,,,,,26.129840850830078
1637760610462,,,,,82.00603485107422,
1637760610463,55.670102654918374,,,,,
1637760610551,,0.2001953125,1.27197265625,9.818115234375,,26.14764976501465
1637760610594,,,,,81.92654418945312,
1637760610600,55.670102654918374,,,,,
1637760610638,,0.189208984375,1.201171875,9.803466796875,,
1637760610639,,,,,,26.11203384399414
1637760610683,55.670102654918374,,,,82.04246520996094,
1637760610773,,0.1904296875,1.219482421875,9.775390625,,26.129840850830078
1637760610774,,,,,81.98284912109375,
1637760610775,55.670102654918374,,,,,
1637760610863,,0.17822265625,1.285400390625,9.771728515625,,26.129840850830078
1637760610864,55.670102654918374,,,,81.99609375,
1637760610998,,0.1806640625,1.263427734375,9.8388671875,,26.165456771850586
1637760610999,,,,,81.92985534667969,
1637760611000,56.75954782293517,,,,,
1637760611088,,0.186767578125,1.24267578125,9.832763671875,,
1637760611089,,,,,82.01927947998047,26.129840850830078
1637760611090,55.670102654918374,,,,,
1637760611178,,0.203857421875,1.28173828125,9.8876953125,,
1637760611179,,,,,,26.129840850830078
1637760611181,55.670102654918374,,,,81.97291564941406,
1637760611314,,0.206298828125,1.292724609375,9.86083984375,,26.165456771850586
1637760611315,55.670102654918374,,,,82.01264953613281,
1637760611403,,0.191650390625,1.28173828125,9.7705078125,,26.14764976501465
1637760611404,55.670102654918374,,,,81.9662857055664,
1637760611494,,0.206298828125,1.25244140625,9.818115234375,,26.11203384399414
1637760611538,,,,,81.97622680664062,
1637760611539,55.670102654918374,,,,,
1637760611629,,0.205078125,1.23779296875,9.82666015625,,
1637760611630,,,,,,26.11203384399414
1637760611674,,,,,81.97622680664062,
1637760611675,54.58290336470751,,,,,
1637760611718,,0.235595703125,1.292724609375,9.89013671875,,26.11203384399414
1637760611719,,,,,81.93978881835938,
1637760611763,54.58290336470751,,,,,
1637760611899,,0.216064453125,1.26708984375,9.832763671875,,26.14764976501465
1637760611901,,,,,81.90998077392578,
1637760611902,55.670102654918374,,,,,
1637760611944,,0.223388671875,1.30126953125,9.891357421875,,
1637760611945,,,,,,26.11203384399414
1637760611988,54.58290336470751,,,,81.9662857055664,
1637760612078,,0.21240234375,,,,
1637760612079,,,1.295166015625,9.859619140625,,26.129840850830078
1637760612080,,,,,81.87355041503906,
1637760612081,54.58290336470751,,,,,
1637760612168,,0.189208984375,1.300048828125,9.86572265625,,26.094226837158203
1637760612169,,,,,81.90003967285156,
1637760612170,54.58290336470751,,,,,
1637760612303,,0.19287109375,1.29150390625,9.7802734375,,26.11203384399414
1637760612304,,,,,81.88018035888672,
1637760612305,54.58290336470751,,,,,
1637760612393,,0.20751953125,1.22802734375,,,
1637760612394,54.58290336470751,,,9.859619140625,81.89342498779297,26.076417922973633
1637760612483,,0.201416015625,1.273193359375,9.820556640625,,26.11203384399414
1637760612484,,,,,81.89010620117188,
1637760612485,54.58290336470751,,,,,
1637760612619,,0.213623046875,1.2939453125,9.8779296875,,
1637760612620,,,,,81.89673614501953,26.14764976501465
1637760612621,54.58290336470751,,,,,
1637760612715,,0.186767578125,,,,
1637760612716,,,1.292724609375,9.853515625,81.8702392578125,26.11203384399414
1637760612717,53.49794028725878,,,,,
1637760612798,,0.196533203125,1.29150390625,9.779052734375,,
1637760612799,,,,,,26.11203384399414
1637760612844,54.58290336470751,,,,81.87355041503906,
1637760612933,,0.194091796875,1.24755859375,9.7998046875,,26.11203384399414
1637760612934,54.58290336470751,,,,81.87355041503906,
1637760613023,,0.196533203125,1.217041015625,9.78759765625,,
1637760613024,,,,,81.81062316894531,26.094226837158203
1637760613025,54.58290336470751,,,,,
1637760613158,,0.196533203125,1.28173828125,9.8095703125,,26.129840850830078
1637760613159,,,,,81.85367584228516,
1637760613160,54.58290336470751,,,,,
1637760613248,,0.1953125,1.2548828125,9.80712890625,,
1637760613249,,,,,81.89010620117188,26.129840850830078
1637760613250,54.58290336470751,,,,,
1637760613338,,0.2099609375,1.253662109375,9.8486328125,,26.129840850830078
1637760613339,,,,,81.83380889892578,
1637760613340,54.58290336470751,,,,,
1637760613473,,0.20263671875,1.297607421875,9.822998046875,,
1637760613474,,,,,81.86030578613281,26.129840850830078
1637760613475,55.670102654918374,,,,,
1637760613563,,0.206298828125,,,,
1637760613564,,,1.26953125,9.8583984375,,26.14764976501465
1637760613565,,,,,81.83049011230469,
1637760613567,54.58290336470751,,,,,
1637760613653,,0.20263671875,1.265869140625,9.79248046875,,26.14764976501465
1637760613698,,,,,81.82717895507812,
1637760613700,54.58290336470751,,,,,
1637760613788,,0.206298828125,1.556396484375,9.7900390625,,
1637760613789,,,,,,26.129840850830078
1637760613790,,,,,81.84373474121094,
1637760613791,54.58290336470751,,,,,
1637760613878,,0.205078125,1.246337890625,9.853515625,,
1637760613879,,,,,81.78412628173828,26.11203384399414
1637760613884,55.670102654918374,,,,,
1637760614013,,0.208740234375,1.278076171875,9.84619140625,,
1637760614014,,,,,,26.11203384399414
1637760614058,,,,,81.83049011230469,
1637760614059,56.75954782293517,,,,,
1637760614103,,0.208740234375,1.329345703125,9.835205078125,,
1637760614104,,,,,,26.129840850830078
1637760614151,,,,,81.81724548339844,
1637760614152,55.670102654918374,,,,,
1637760614238,,0.213623046875,1.2841796875,9.849853515625,,26.165456771850586
1637760614283,56.75954782293517,,,,81.8404312133789,
1637760614328,,0.220947265625,1.2939453125,9.86083984375,,
1637760614329,,,,,,26.14764976501465
1637760614374,,,,,81.82056427001953,
1637760614375,56.75954782293517,,,,,
1637760614464,,0.20751953125,1.2939453125,9.873046875,,
1637760614508,,,,,,26.14764976501465
1637760614509,,,,,81.84706115722656,
1637760614553,56.75954782293517,,,,,
1637760614554,,0.172119140625,,,,
1637760614555,,,1.256103515625,9.788818359375,,
1637760614598,,,,,81.80731201171875,26.165456771850586
1637760614644,55.670102654918374,,,,,
1637760614688,,0.18798828125,1.29150390625,9.81689453125,,
1637760614689,,,,,,26.129840850830078
1637760614733,,,,,81.8404312133789,
1637760614734,55.670102654918374,,,,,
1637760614823,,0.206298828125,,,,
1637760614824,,,1.322021484375,9.881591796875,81.80400085449219,26.129840850830078
1637760614825,55.670102654918374,,,,,
1637760614913,,0.2099609375,1.265869140625,9.852294921875,,
1637760614914,,,,,,26.11203384399414
1637760614959,,,,,81.7410659790039,
1637760614960,55.670102654918374,,,,,
1637760615049,,0.196533203125,1.298828125,,,
1637760615050,,,,,81.78742980957031,
1637760615051,55.670102654918374,,,,,
1637760615140,,0.1904296875,1.287841796875,9.803466796875,,26.165456771850586
1637760615142,,,,,81.85367584228516,
1637760615143,55.670102654918374,,,,,
1637760615320,,0.181884765625,1.207275390625,9.854736328125,81.79737091064453,26.14764976501465
1637760615322,55.670102654918374,,,,,
1637760615364,,0.216064453125,1.285400390625,9.886474609375,,26.165456771850586
1637760615365,,,,,81.79737091064453,
1637760615409,55.670102654918374,,,,,
1637760615500,,0.21240234375,1.240234375,9.884033203125,,
1637760615501,,,,,81.81062316894531,26.165456771850586
1637760615502,56.75954782293517,,,,,
1637760615590,,0.1953125,1.2109375,9.88037109375,,
1637760615591,,,,,,26.14764976501465
1637760615593,,,,,81.8503646850586,
1637760615594,55.670102654918374,,,,,
1637760615723,,0.201416015625,1.275634765625,9.866943359375,,26.14764976501465
1637760615724,,,,,81.81393432617188,
1637760615725,55.670102654918374,,,,,
1637760615813,,0.18798828125,1.2646484375,9.833984375,,
1637760615814,,,,,81.77750396728516,26.14764976501465
1637760615815,55.670102654918374,,,,,
1637760615903,,0.18798828125,1.2646484375,9.7802734375,,
1637760615904,,,,,81.77418518066406,26.14764976501465
1637760615906,55.670102654918374,,,,,
1637760616038,,0.18310546875,1.24267578125,9.794921875,,
1637760616039,,,,,81.76094055175781,26.129840850830078
1637760616040,54.58290336470751,,,,,
1637760616128,,0.20263671875,1.2255859375,9.85107421875,,26.14764976501465
1637760616129,,,,,81.81062316894531,
1637760616130,54.58290336470751,,,,,
1637760616218,,0.216064453125,1.30859375,9.8828125,,26.14764976501465
1637760616263,54.58290336470751,,,,81.77418518066406,
1637760616353,,0.186767578125,1.25732421875,9.82177734375,,26.14764976501465
1637760616354,,,,,81.83712005615234,
1637760616355,55.670102654918374,,,,,
1637760616443,,0.21484375,1.273193359375,9.8046875,,26.14764976501465
1637760616444,,,,,81.81062316894531,
1637760616445,54.58290336470751,,,,,
1637760616579,,0.18310546875,1.22802734375,9.779052734375,,
1637760616580,,,,,81.79405975341797,26.11203384399414
1637760616581,54.58290336470751,,,,,
1637760616668,,0.19775390625,1.23291015625,9.833984375,,26.129840850830078
1637760616669,,,,,81.7642593383789,
1637760616670,54.58290336470751,,,,,
1637760616758,,0.19775390625,1.2841796875,9.8193359375,,
1637760616759,,,,,,26.14764976501465
1637760616761,,,,,81.80731201171875,
1637760616762,54.58290336470751,,,,,
1637760616894,,0.196533203125,1.268310546875,9.827880859375,,26.14764976501465
1637760616895,,,,,81.79405975341797,
1637760616896,55.670102654918374,,,,,
1637760616983,,0.213623046875,1.287841796875,9.8583984375,,
1637760616984,,,,,81.79737091064453,26.183265686035156
1637760616985,54.58290336470751,,,,,
1637760617163,,0.185546875,1.23291015625,9.813232421875,,26.14764976501465
1637760617164,,,,,81.75762939453125,
1637760617167,55.670102654918374,,,,,
1637760617208,,0.189208984375,,,,
1637760617209,,,1.297607421875,9.83642578125,81.7410659790039,26.129840850830078
1637760617254,54.58290336470751,,,,,
1637760617343,,0.203857421875,1.246337890625,9.801025390625,,
1637760617344,,,,,81.76757049560547,26.14764976501465
1637760617345,55.670102654918374,,,,,
1637760617434,,0.211181640625,1.282958984375,9.871826171875,,26.094226837158203
1637760617480,,,,,81.7708740234375,
1637760617482,55.670102654918374,,,,,
1637760617569,,0.203857421875,1.270751953125,9.85595703125,,26.165456771850586
1637760617570,,,,,81.79737091064453,
1637760617614,55.670102654918374,,,,,
1637760617659,,0.20263671875,1.260986328125,9.8193359375,81.7708740234375,26.14764976501465
1637760617703,55.670102654918374,,,,,
1637760617839,,0.194091796875,1.29150390625,9.791259765625,,
1637760617840,,,,,81.7642593383789,26.129840850830078
1637760617841,55.670102654918374,,,,,
1637760617883,,0.21240234375,,,,
1637760617884,,,1.26708984375,9.857177734375,81.78742980957031,26.094226837158203
1637760617929,55.670102654918374,,,,,
1637760618019,,0.205078125,1.295166015625,9.876708984375,,26.076417922973633
1637760618064,,,,,81.76094055175781,
1637760618065,56.75954782293517,,,,,
1637760618154,,0.211181640625,1.2548828125,9.830322265625,,
1637760618155,,,,,,26.14764976501465
1637760618199,,,,,81.74769592285156,
1637760618200,55.670102654918374,,,,,
1637760618289,,0.20751953125,1.231689453125,9.849853515625,,
1637760618290,,,,,,26.129840850830078
1637760618334,,,,,81.78081512451172,
1637760618335,56.75954782293517,,,,,
1637760618379,,0.189208984375,1.246337890625,9.79736328125,,26.14764976501465
1637760618424,,,,,81.744384765625,
1637760618425,55.670102654918374,,,,,
1637760618558,,0.174560546875,1.224365234375,9.7412109375,,26.14764976501465
1637760618603,,,,,81.76757049560547,
1637760618604,55.670102654918374,,,,,
1637760618648,,0.201416015625,1.258544921875,9.83642578125,,
1637760618649,,,,,,26.11203384399414
1637760618693,,,,,81.7642593383789,
1637760618694,55.670102654918374,,,,,
1637760618783,,0.1953125,1.2451171875,,,
1637760618784,,,,9.761962890625,,26.14764976501465
1637760618828,,,,,81.7410659790039,
1637760618829,55.670102654918374,,,,,
1637760618873,,0.18310546875,1.23291015625,9.803466796875,,
1637760618874,,,,,,26.11203384399414
1637760618918,,,,,81.72782135009766,
1637760618964,55.670102654918374,,,,,
1637760619008,,0.201416015625,,,,
1637760619009,,,1.25244140625,9.830322265625,81.75431823730469,26.165456771850586
1637760619054,55.670102654918374,,,,,
1637760619144,,0.198974609375,1.253662109375,9.840087890625,,26.129840850830078
1637760619145,,,,,81.71126556396484,
1637760619146,55.670102654918374,,,,,
1637760619234,,0.2099609375,1.28173828125,9.898681640625,,26.129840850830078
1637760619278,,,,,81.70463562011719,
1637760619279,55.670102654918374,,,,,
1637760619369,,0.2197265625,1.260986328125,9.88037109375,,
1637760619370,,,,,,26.165456771850586
1637760619371,,,,,81.7642593383789,
1637760619372,55.670102654918374,,,,,
1637760619459,,0.189208984375,1.23291015625,9.8291015625,,26.14764976501465
1637760619460,55.670102654918374,,,,81.70132446289062,
1637760619594,,0.20751953125,1.285400390625,9.776611328125,,26.14764976501465
1637760619595,55.670102654918374,,,,81.6648941040039,
1637760619684,,0.185546875,1.2255859375,9.81201171875,,26.165456771850586
1637760619685,,,,,81.69139099121094,
1637760619686,55.670102654918374,,,,,
1637760619774,,0.21484375,1.26953125,9.871826171875,,
1637760619775,,,,,81.68807983398438,26.11203384399414
1637760619776,55.670102654918374,,,,,
1637760619908,,0.208740234375,1.278076171875,9.90234375,,
1637760619909,,,,,81.77750396728516,26.14764976501465
1637760619910,55.670102654918374,,,,,
1637760620000,,0.213623046875,1.279296875,9.80224609375,81.73445129394531,26.129840850830078
1637760620001,55.670102654918374,,,,,
1637760620089,,0.1953125,1.2109375,9.786376953125,,26.11203384399414
1637760620134,,,,,81.6947021484375,
1637760620135,55.670102654918374,,,,,
1637760620224,,0.206298828125,1.26220703125,9.825439453125,,26.11203384399414
1637760620225,55.670102654918374,,,,81.6947021484375,
1637760620314,,0.213623046875,1.2646484375,9.85595703125,,26.129840850830078
1637760620315,,,,,81.71788024902344,
1637760620316,55.670102654918374,,,,,
1637760620449,,0.228271484375,1.280517578125,9.91455078125,,26.14764976501465
1637760620450,,,,,81.72782135009766,
1637760620451,54.58290336470751,,,,,
1637760620539,,0.216064453125,1.280517578125,9.8828125,,
1637760620540,,,,,81.6648941040039,26.183265686035156
1637760620541,54.58290336470751,,,,,
1637760620629,,0.191650390625,1.23046875,9.766845703125,,
1637760620630,,,,,81.63508605957031,26.14764976501465
1637760620632,54.58290336470751,,,,,
1637760620763,,0.198974609375,1.251220703125,9.742431640625,,
1637760620764,,,,,81.68144989013672,26.165456771850586
1637760620765,54.58290336470751,,,,,
1637760620854,,0.196533203125,1.26708984375,9.830322265625,,26.165456771850586
1637760620855,,,,,81.6152114868164,
1637760620856,54.58290336470751,,,,,
1637760620943,,0.20751953125,1.24755859375,9.89013671875,,
1637760620944,,,,,81.64501953125,26.14764976501465
1637760620945,54.58290336470751,,,,,
1637760621079,,0.213623046875,1.256103515625,9.85107421875,,
1637760621080,,,,,,26.183265686035156
1637760621081,54.58290336470751,,,,81.62845611572266,
1637760621169,,0.191650390625,,,,
1637760621170,,,1.22314453125,9.830322265625,,26.183265686035156
1637760621171,,,,,81.63839721679688,
1637760621172,54.58290336470751,,,,,
1637760621259,,0.17333984375,1.279296875,9.825439453125,,
1637760621260,,,,,81.64833068847656,26.165456771850586
1637760621261,54.58290336470751,,,,,
1637760621394,,0.19287109375,1.24755859375,9.78515625,,26.11203384399414
1637760621395,,,,,81.60528564453125,
1637760621396,54.58290336470751,,,,,
1637760621484,,0.2001953125,1.279296875,9.810791015625,81.63839721679688,26.165456771850586
1637760621485,54.58290336470751,,,,,
1637760621574,,0.201416015625,1.25244140625,9.82421875,,26.165456771850586
1637760621618,,,,,81.64833068847656,
1637760621619,54.58290336470751,,,,,
1637760621708,,0.203857421875,1.27197265625,9.82177734375,,
1637760621709,,,,,81.6251449584961,26.129840850830078
1637760621710,54.58290336470751,,,,,
1637760621799,,0.19775390625,1.273193359375,9.85107421875,,
1637760621800,,,,,,26.165456771850586
1637760621801,,,,,81.63177490234375,
1637760621844,54.58290336470751,,,,,
1637760621934,,0.186767578125,1.260986328125,9.837646484375,,26.165456771850586
1637760621935,,,,,81.54235076904297,
1637760621937,54.58290336470751,,,,,
1637760622023,,0.203857421875,,,,
1637760622024,,,1.251220703125,9.7998046875,81.66157531738281,26.165456771850586
1637760622025,54.58290336470751,,,,,
1637760622160,,0.1953125,1.28662109375,9.774169921875,,26.165456771850586
1637760622203,,,,,81.60195922851562,
1637760622204,54.58290336470751,,,,,
1637760622248,,0.19775390625,1.239013671875,9.775390625,,
1637760622249,,,,,,26.14764976501465
1637760622293,,,,,81.57546997070312,
1637760622295,55.670102654918374,,,,,
1637760622383,,0.185546875,1.27685546875,9.783935546875,,
1637760622384,,,,,,26.165456771850586
1637760622429,55.670102654918374,,,,81.6152114868164,
1637760622473,,0.1953125,1.263427734375,9.8291015625,,26.129840850830078
1637760622518,,,,,81.63839721679688,
1637760622520,55.670102654918374,,,,,
1637760622608,,0.203857421875,1.25732421875,9.796142578125,,
1637760622609,,,,,,26.14764976501465
1637760622653,,,,,81.61190032958984,
1637760622654,55.670102654918374,,,,,
1637760622698,,0.2197265625,1.27685546875,9.893798828125,,
1637760622699,,,,,,26.165456771850586
1637760622744,,,,,81.5390396118164,
1637760622745,56.75954782293517,,,,,
1637760622834,,0.1953125,1.27197265625,9.7900390625,,26.165456771850586
1637760622878,,,,,81.6251449584961,
1637760622879,55.670102654918374,,,,,
1637760622923,,0.21240234375,,,,
1637760622924,,,1.30615234375,9.8583984375,,26.14764976501465
1637760622968,,,,,81.56884002685547,
1637760622969,55.670102654918374,,,,,
1637760623058,,0.225830078125,1.27197265625,9.920654296875,,26.129840850830078
1637760623059,,,,,81.4992904663086,
1637760623060,55.670102654918374,,,,,
1637760623148,,0.194091796875,1.273193359375,9.83642578125,,26.14764976501465
1637760623194,55.670102654918374,,,,81.53240966796875,
1637760623285,55.670102654918374,0.191650390625,1.2744140625,9.820556640625,81.50592041015625,26.14764976501465
1637760623419,,0.1953125,1.25732421875,9.814453125,,26.165456771850586
1637760623420,,,,,81.49267578125,
1637760623421,55.670102654918374,,,,,
1637760623508,,0.194091796875,1.285400390625,9.8486328125,,
1637760623509,,,,,81.54235076904297,26.14764976501465
1637760623510,55.670102654918374,,,,,
1637760623598,,0.21240234375,1.23779296875,9.88525390625,,26.183265686035156
1637760623599,,,,,81.58209228515625,
1637760623600,54.58290336470751,,,,,
1637760623688,,0.2001953125,1.2451171875,9.88037109375,,
1637760623689,,,,,81.5158462524414,26.11203384399414
1637760623690,55.670102654918374,,,,,
1637760623823,,0.191650390625,1.25244140625,9.805908203125,,26.129840850830078
1637760623825,55.670102654918374,,,,81.55228424072266,
1637760623913,,0.194091796875,1.25,9.77783203125,,
1637760623914,,,,,81.48273468017578,26.094226837158203
1637760623915,55.670102654918374,,,,,
1637760624003,,0.194091796875,1.23046875,9.808349609375,,
1637760624004,,,,,81.53240966796875,26.129840850830078
1637760624005,55.670102654918374,,,,,
1637760624138,,0.203857421875,1.243896484375,9.88037109375,,
1637760624139,,,,,,26.183265686035156
1637760624140,,,,,81.52247619628906,
1637760624141,55.670102654918374,,,,,
1637760624229,,0.213623046875,1.312255859375,9.87548828125,,
1637760624230,,,,,,26.14764976501465
1637760624231,55.670102654918374,,,,81.49597930908203,
1637760624318,,0.196533203125,1.26220703125,9.813232421875,,
1637760624319,,,,,,26.14764976501465
1637760624364,,,,,81.46286010742188,
1637760624365,54.58290336470751,,,,,
1637760624454,,0.1904296875,1.287841796875,9.779052734375,,26.165456771850586
1637760624455,,,,,81.50592041015625,
1637760624456,54.58290336470751,,,,,
1637760624546,,0.22216796875,1.251220703125,9.837646484375,,26.14764976501465
1637760624588,,,,,81.545654296875,
1637760624589,54.58290336470751,,,,,
1637760624678,,0.179443359375,1.24267578125,9.779052734375,,
1637760624679,,,,,,26.14764976501465
1637760624680,,,,,81.5158462524414,
1637760624681,54.58290336470751,,,,,
1637760624768,,0.208740234375,1.2841796875,9.813232421875,,
1637760624770,,,,,81.5390396118164,26.165456771850586
1637760624771,54.58290336470751,,,,,
1637760624859,,0.194091796875,1.24267578125,9.83642578125,,26.183265686035156
1637760624903,,,,,81.50260162353516,
1637760624904,54.58290336470751,,,,,
1637760624994,,0.2001953125,1.260986328125,9.832763671875,,
1637760624995,,,,,,26.183265686035156
1637760624996,,,,,81.48273468017578,
1637760624997,54.58290336470751,,,,,
1637760625084,,0.213623046875,1.204833984375,9.8486328125,,26.165456771850586
1637760625086,54.58290336470751,,,,81.50260162353516,
1637760625219,,0.57861328125,-0.05126953125,9.892578125,,26.165456771850586
1637760625220,,,,,81.52247619628906,
1637760625221,54.58290336470751,,,,,
1637760625309,,1.295166015625,-0.5908203125,11.1669921875,,26.165456771850586
1637760625310,,,,,81.52909851074219,
1637760625312,54.58290336470751,,,,,
1637760625399,,-1.126708984375,-2.93701171875,14.727783203125,,
1637760625400,,,,,,26.129840850830078
1637760625401,,,,,81.47610473632812,
1637760625402,54.58290336470751,,,,,
1637760625534,,-2.276611328125,2.470703125,14.2431640625,,
1637760625535,,,,,81.55559539794922,26.14764976501465
1637760625537,54.58290336470751,,,,,
1637760625625,,-1.954345703125,-4.251708984375,8.287353515625,,
1637760625626,,,,,81.50260162353516,26.165456771850586
1637760625627,54.58290336470751,,,,,
1637760625714,,-1.639404296875,-1.795654296875,9.149169921875,,
1637760625715,,,,,,26.165456771850586
1637760625759,,,,,81.469482421875,
1637760625760,54.58290336470751,,,,,
1637760625849,,-0.255126953125,-2.2412109375,9.53857421875,,
1637760625850,,,,,81.52578735351562,26.14764976501465
1637760625851,54.58290336470751,,,,,
1637760625940,,0.484619140625,-0.8154296875,7.55859375,,
1637760625941,,,,,81.4396743774414,26.14764976501465
1637760625943,53.49794028725878,,,,,
1637760626028,,2.08984375,,,,
1637760626029,,,-0.733642578125,4.498291015625,81.44298553466797,26.165456771850586
1637760626030,53.49794028725878,,,,,
1637760626164,,11.304931640625,0.594482421875,9.74609375,,
1637760626165,,,,,81.5390396118164,26.14764976501465
1637760626166,53.49794028725878,,,,,
1637760626253,,4.862060546875,,,,
1637760626254,,,-1.265869140625,9.266357421875,,26.11203384399414
1637760626299,,,,,81.55890655517578,
1637760626300,54.58290336470751,,,,,
1637760626389,,5.009765625,0.218505859375,9.033203125,,
1637760626390,,,,,81.56222534179688,26.094226837158203
1637760626392,54.58290336470751,,,,,
1637760626479,,6.09619140625,-0.782470703125,8.531494140625,81.76757049560547,26.165456771850586
1637760626480,55.670102654918374,,,,,
1637760626615,,5.31494140625,-0.7470703125,7.830810546875,,
1637760626616,,,,,,26.165456771850586
1637760626617,,,,,81.9662857055664,
1637760626618,57.851236933657574,,,,,
1637760626704,,6.336669921875,-0.770263671875,9.100341796875,,26.14764976501465
1637760626705,58.94519084827703,,,,82.06895446777344,
1637760626794,,5.498046875,-1.0888671875,8.079833984375,,
1637760626795,,,,,82.09877014160156,26.14764976501465
1637760626797,61.13989625221233,,,,,
1637760626884,,2.237548828125,-2.760009765625,10.892333984375,,26.14764976501465
1637760626929,,,,,82.28092956542969,
1637760626930,63.3437213131431,,,,,
1637760627020,,5.15380859375,-1.01318359375,8.33740234375,,
1637760627063,,,,,,26.165456771850586
1637760627064,,,,,82.31074523925781,
1637760627065,63.3437213131431,,,,,
1637760627108,,3.93310546875,-0.430908203125,,,
1637760627109,,,,9.10400390625,,26.183265686035156
1637760627110,,,,,82.38029479980469,
1637760627154,64.44906649358568,,,,,
1637760627244,,3.52294921875,-1.016845703125,9.637451171875,,
1637760627245,,,,,82.54589080810547,26.201072692871094
1637760627252,64.44906649358568,,,,,
1637760627333,,2.724609375,0.028076171875,8.956298828125,,
1637760627334,,,,,,26.2366886138916
1637760627335,65.55670772505265,,,,82.59226989746094,
1637760627469,,3.851318359375,-0.6591796875,13.876953125,,
1637760627470,,,,,,26.201072692871094
1637760627471,,,,,82.69824981689453,
1637760627472,66.66666666666667,,,,,
1637760627559,,3.64990234375,-0.931396484375,9.630126953125,,
1637760627560,,,,,82.81417083740234,26.201072692871094
1637760627562,66.66666666666667,,,,,
1637760627648,,3.612060546875,-1.021728515625,,,
1637760627649,,,,8.773193359375,82.8506088256836,26.201072692871094
1637760627651,66.66666666666667,,,,,
1637760627783,,4.149169921875,-0.1513671875,8.40576171875,,
1637760627784,,,,,82.93671417236328,26.201072692871094
1637760627785,68.8935259890777,,,,,
1637760627874,,7.16552734375,2.181396484375,7.562255859375,,
1637760627875,,,,,83.10894012451172,26.21887969970703
1637760627876,71.12970682914404,,,,,
1637760627964,,3.499755859375,0.675048828125,8.78662109375,,
1637760627965,,,,,,26.25449562072754
1637760628009,,,,,83.29441833496094,
1637760628010,75.63025149473422,,,,,
1637760628099,,4.1259765625,5.130615234375,9.15283203125,,
1637760628100,,,,,,26.27230453491211
1637760628101,,,,,83.57925415039062,
1637760628102,82.45243012594217,,,,,
1637760628189,,4.459228515625,-0.02197265625,9.285888671875,,26.27230453491211
1637760628190,,,,,83.78459930419922,
1637760628191,90.5218298052234,,,,,
1637760628324,,5.400390625,-0.269775390625,9.0380859375,,26.307918548583984
1637760628325,,,,,83.973388671875,
1637760628326,101.07527234124548,,,,,
1637760628413,,5.950927734375,-0.574951171875,9.002685546875,,
1637760628459,,,,,84.2946548461914,26.290111541748047
1637760628460,113.0434735736236,,,,,
1637760628504,,5.460205078125,0.51025390625,8.79150390625,,26.307918548583984
1637760628549,,,,,84.56623840332031,
1637760628550,128.99668520385472,,,,,
1637760628638,,5.95458984375,0.701904296875,7.132568359375,,
1637760628639,,,,,84.86433410644531,26.325727462768555
1637760628640,147.98205771742826,,,,,
1637760628729,,4.30419921875,-0.244140625,6.47216796875,,
1637760628730,,,,,,26.343534469604492
1637760628731,,,,,83.43021392822266,
1637760628732,167.61687972262496,,,,,
1637760628865,,4.47265625,-2.64404296875,10.277099609375,,26.343534469604492
1637760628909,,,,,85.31144714355469,
1637760628910,193.47320207507804,,,,,
1637760628954,,4.5263671875,-0.79345703125,9.033203125,,26.343534469604492
1637760628998,,,,,85.54991912841797,
1637760628999,223.4169600066818,,,,,
1637760629089,,4.273681640625,-0.645751953125,8.8427734375,,
1637760629090,,,,,85.78838348388672,26.343534469604492
1637760629091,254.9019488679685,,,,,
1637760629179,,4.171142578125,-0.869140625,8.7939453125,,
1637760629224,,,,,86.09640502929688,26.343534469604492
1637760629226,289.6725611289809,,,,,
1637760629315,,3.388671875,-0.45654296875,8.92822265625,,26.307918548583984
1637760629316,,,,,86.32162475585938,
1637760629317,326.4248454653038,,,,,
1637760629403,,3.511962890625,-1.48681640625,9.532470703125,,
1637760629404,,,,,,26.343534469604492
1637760629405,365.3333372819689,,,,86.59983825683594,
1637760629538,,3.13232421875,-1.929931640625,9.76806640625,,
1637760629539,,,,,86.76544189453125,26.343534469604492
1637760629540,406.59339274491816,,,,,
1637760629674,,2.9345703125,-0.928955078125,9.110107421875,,26.307918548583984
1637760629675,,,,,86.96415710449219,
1637760629676,444.2877203812971,,,,,
1637760629719,,4.6630859375,-0.00244140625,9.33349609375,,26.307918548583984
1637760629720,,,,,87.080078125,
1637760629765,481.9102576711703,,,,,
1637760629854,,3.651123046875,-1.895751953125,8.9013671875,,26.325727462768555
1637760629855,514.7929023132826,,,,87.38147735595703,
1637760629946,,3.2568359375,-1.50390625,9.267578125,,26.307918548583984
1637760629947,542.1686544527705,,,,87.5503921508789,
1637760630079,,3.5400390625,-1.08154296875,9.87548828125,,
1637760630080,,,,,,26.361343383789062
1637760630081,563.3587609906766,,,,87.74911499023438,
1637760630169,,4.37255859375,-0.028076171875,8.63525390625,,
1637760630170,,,,,87.86172485351562,26.325727462768555
1637760630171,577.8120282542552,,,,,
1637760630258,,6.4697265625,,,,
1637760630259,,,0.821533203125,9.005126953125,,
1637760630260,,,,,88.04719543457031,26.325727462768555
1637760630261,582.6893512834213,,,,,
1637760630393,,5.9765625,0.142822265625,7.327880859375,,
1637760630394,,,,,88.12999725341797,26.361343383789062
1637760630396,580.2469426149145,,,,,
1637760630485,,6.748046875,0.18310546875,6.923828125,,26.343534469604492
1637760630486,577.8120282542552,,,,88.24260711669922,
1637760630574,,6.915283203125,0.084228515625,6.30859375,,26.343534469604492
1637760630619,,,,,88.43801879882812,
1637760630709,568.1470334891222,,,,,
1637760630753,,2.774658203125,-0.45166015625,9.25048828125,,
1637760630754,,,,,88.58043670654297,26.325727462768555
1637760630755,556.2310268216803,,,,,
1637760630843,,3.480224609375,,,,
1637760630844,,,-1.7041015625,10.82275390625,88.75596618652344,26.379150390625
1637760630845,551.5151299983681,,,,,
1637760630934,,3.477783203125,-1.748046875,9.783935546875,,26.343534469604492
1637760630935,,,,,88.89508056640625,
1637760630936,544.4947444617188,,,,,
1637760631069,,2.9541015625,-1.8017578125,9.82666015625,,26.396957397460938
1637760631070,,,,,89.09379577636719,
1637760631071,539.8496381892382,,,,,
1637760631158,,2.1533203125,-1.444091796875,,,
1637760631159,,,,10.120849609375,89.23291015625,26.379150390625
1637760631161,539.8496381892382,,,,,
1637760631249,,3.026123046875,-1.2255859375,10.36376953125,89.4283218383789,26.396957397460938
1637760631251,537.5375617838239,,,,,
1637760631384,,2.77099609375,-0.701904296875,9.571533203125,,26.396957397460938
1637760631385,,,,,89.60717010498047,
1637760631429,539.8496381892382,,,,,
1637760631473,,3.182373046875,,,,
1637760631474,,,-0.814208984375,9.78271484375,,26.450380325317383
1637760631476,,,,,89.73965454101562,
1637760631519,544.4947444617188,,,,,
1637760631609,,3.262939453125,-1.075439453125,9.71435546875,,
1637760631610,,,,,,26.468189239501953
1637760631611,,,,,89.92512512207031,
1637760631612,553.8694763975475,,,,,
1637760631744,,3.299560546875,-1.3525390625,9.4970703125,,26.50380516052246
1637760631745,565.749214024384,,,,90.06092071533203,
1637760631834,,3.280029296875,-1.23046875,9.1796875,,
1637760631835,,,,,90.29608154296875,26.48599624633789
1637760631837,580.2469426149145,,,,,
1637760631923,,3.482666015625,,,,
1637760631924,,,-0.889892578125,9.21875,,26.468189239501953
1637760631925,597.5038854881469,,,,90.47822570800781,
1637760632059,,3.463134765625,-1.268310546875,9.620361328125,,
1637760632060,,,,,90.67695617675781,26.48599624633789
1637760632061,620.2531851478318,,,,,
1637760632149,,3.607177734375,-1.1767578125,9.539794921875,,
1637760632150,,,,,90.79287719726562,26.450380325317383
1637760632152,646.3022755772461,,,,,
1637760632239,,3.70361328125,-1.1572265625,9.300537109375,,
1637760632240,,,,,90.96841430664062,26.48599624633789
1637760632242,675.9410314009385,,,,,
1637760632375,,3.45458984375,-0.709228515625,9.39208984375,,26.396957397460938
1637760632376,,,,,91.13401794433594,
1637760632377,703.8269536788234,,,,,
1637760632464,,3.38134765625,-1.03759765625,9.549560546875,91.30955505371094,26.48599624633789
1637760632466,732.6565223626582,,,,,
1637760632555,,3.275146484375,-0.762939453125,9.43359375,91.48509979248047,26.468189239501953
1637760632557,756.4322287469943,,,,,
1637760632690,,3.369140625,-0.667724609375,9.583740234375,,26.48599624633789
1637760632691,,,,,91.64738464355469,
1637760632694,774.6967007035672,,,,,
1637760632779,,3.291015625,-0.67626953125,9.564208984375,91.80967712402344,26.48599624633789
1637760632781,790.2097954797398,,,,,
1637760632870,,2.965087890625,-0.743408203125,9.56298828125,,
1637760632871,,,,,91.95870971679688,26.468189239501953
1637760632873,802.8168906249881,,,,,
1637760633004,,2.862548828125,-1.143798828125,9.76318359375,,
1637760633005,,,,,92.03158569335938,26.50380516052246
1637760633007,812.3894158406005,,,,,
1637760633094,,2.708740234375,-1.14501953125,9.725341796875,92.2137451171875,26.539419174194336
1637760633095,818.8276892850282,,,,,
1637760633184,,2.8369140625,-1.07421875,9.735107421875,,26.5216121673584
1637760633228,,,,,92.33961486816406,
1637760633229,822.0640583344865,,,,,
1637760633319,,2.61962890625,-1.031494140625,,,
1637760633320,,,,,92.49526977539062,
1637760633322,822.0640583344865,,,,,
1637760633409,,2.470703125,-1.732177734375,10.474853515625,,26.557228088378906
1637760633410,,,,,92.59131622314453,
1637760633411,822.0640583344865,,,,,
1637760633544,,2.55615234375,-1.929931640625,10.015869140625,,26.557228088378906
1637760633545,,,,,92.77348327636719,
1637760633546,818.8276892850282,,,,,
1637760633634,,2.3046875,-1.329345703125,10.09033203125,,26.557228088378906
1637760633635,,,,,92.9688949584961,
1637760633637,809.1872559736419,,,,,
1637760633724,,2.29736328125,-1.798095703125,,,
1637760633725,,,,9.786376953125,,26.575035095214844
1637760633726,,,,,93.15105438232422,
1637760633727,799.6484394735362,,,,,
1637760633860,,2.386474609375,-1.22802734375,9.12109375,,
1637760633861,,,,,,26.5216121673584
1637760633862,,,,,93.3365249633789,
1637760633864,793.3450100815985,,,,,
1637760633949,,4.073486328125,0.93017578125,8.7353515625,,
1637760633950,,,,,93.53524780273438,26.557228088378906
1637760633951,787.085526951597,,,,,
1637760634039,,6.66015625,2.60986328125,7.71484375,,
1637760634083,,,,,,26.539419174194336
1637760634084,,,,,93.6412353515625,
1637760634085,783.9720915696773,,,,,
1637760634174,,5.189208984375,2.48291015625,8.182373046875,,26.592844009399414
1637760634175,,,,,93.82008361816406,
1637760634176,777.7777159655584,,,,,
1637760634264,,4.862060546875,1.158447265625,7.98095703125,,
1637760634265,,,,,93.97575378417969,26.575035095214844
1637760634266,774.6967007035672,,,,,
1637760634399,,4.801025390625,0.5029296875,7.225341796875,,
1637760634401,,,,,,26.592844009399414
1637760634402,,,,,94.14797973632812,
1637760634444,774.6967007035672,,,,,
1637760634489,,4.293212890625,-0.7177734375,9.593505859375,,26.61065101623535
1637760634490,,,,,94.35995483398438,
1637760634535,777.7777159655584,,,,,
1637760634624,,4.266357421875,-3.009033203125,8.7646484375,,
1637760634625,,,,,94.52886962890625,26.61065101623535
1637760634626,787.085526951597,,,,,
1637760634714,,3.53759765625,-2.169189453125,8.5302734375,,26.62845802307129
1637760634758,,,,,94.843505859375,
1637760634759,796.4912867054464,,,,,
1637760634849,,3.387451171875,-2.296142578125,9.180908203125,,
1637760634850,,,,,,26.64626693725586
1637760634851,,,,,94.9892349243164,
1637760634852,809.1872559736419,,,,,
1637760634939,,4.578857421875,-1.795654296875,10.38818359375,,26.64626693725586
1637760634940,,,,,95.15152740478516,
1637760634941,825.3119832950387,,,,,
1637760635074,,4.18212890625,1.12548828125,11.4599609375,,26.61065101623535
1637760635075,,,,,95.35025024414062,
1637760635076,841.7265421855247,,,,,
1637760635164,,3.71826171875,1.6650390625,9.248046875,,
1637760635165,,,,,95.52578735351562,26.664073944091797
1637760635167,858.4392233673389,,,,,
1637760635254,,3.646240234375,1.1572265625,7.861328125,,26.62845802307129
1637760635255,875.4579175087867,,,,95.71127319335938,
1637760635389,,4.326171875,1.590576171875,8.9208984375,,26.62845802307129
1637760635390,,,,,95.94310760498047,
1637760635391,899.8144079579533,,,,,
1637760635480,,6.20361328125,0.57861328125,8.216552734375,,
1637760635481,,,,,96.00935363769531,26.62845802307129
1637760635482,924.8120963886876,,,,,
1637760635569,,6.500244140625,,,,
1637760635570,,,0.120849609375,7.806396484375,,
1637760635571,,,,,96.20475769042969,26.681880950927734
1637760635572,950.4761667359719,,,,,
1637760635704,,7.274169921875,-1.024169921875,9.351806640625,,26.62845802307129
1637760635749,,,,,96.34718322753906,
1637760635751,973.0249882730453,,,,,
1637760635794,,5.97900390625,-2.921142578125,7.745361328125,,
1637760635795,,,,,96.48297119140625,26.64626693725586
1637760635839,996.1013793365505,,,,,
1637760635932,,5.47607421875,-2.6904296875,6.329345703125,96.60882568359375,26.592844009399414
1637760635933,1019.7238071354342,,,,,
1637760636019,,7.02392578125,-1.49658203125,6.209716796875,,26.575035095214844
1637760636064,,,,,96.67837524414062,
1637760636065,1035.7853457121373,,,,,
1637760636154,,7.742919921875,-2.342529296875,6.898193359375,,
1637760636155,,,,,96.8174819946289,26.575035095214844
1637760636157,1056.2249167911723,,,,,
1637760636244,,7.528076171875,0.458984375,7.862548828125,96.82742309570312,26.61065101623535
1637760636245,1068.6868156689625,,,,,
1637760636379,,7.674560546875,0.006103515625,7.47802734375,,
1637760636380,,,,,96.80754852294922,26.592844009399414
1637760636381,1068.6868156689625,,,,,
1637760636469,,6.708984375,-0.4345703125,5.916748046875,,26.575035095214844
1637760636470,,,,,96.89366149902344,
1637760636471,1060.3621908417538,,,,,
1637760636559,,7.415771484375,-0.455322265625,5.43701171875,,26.592844009399414
1637760636560,,,,,96.88372802734375,
1637760636561,1052.104231540471,,,,,
1637760636739,,7.474365234375,-0.02685546875,6.50390625,,
1637760636740,,,,,,26.557228088378906
1637760636741,,,,,96.93671417236328,
1637760636742,1031.7460297937507,,,,,
1637760636783,,8.31787109375,,,,
1637760636784,,,-1.875,7.1875,97.03276824951172,26.575035095214844
1637760636875,1011.7877758890887,,,,,
1637760636919,,7.576904296875,-1.71630859375,4.49951171875,,26.575035095214844
1637760636920,,,,,96.95658874511719,
1637760637010,988.3494440996234,,,,,
1637760637055,,8.671875,-1.094970703125,4.515380859375,,
1637760637056,,,,,97.03607177734375,26.62845802307129
1637760637100,965.4511396055334,,,,,
1637760637234,,10.770263671875,-0.679931640625,6.39404296875,97.08245086669922,26.64626693725586
1637760637235,939.39399368945,,,,,
1637760637279,,7.55126953125,-0.457763671875,6.142578125,,
1637760637280,,,,,,26.64626693725586
1637760637369,,,,,97.17518615722656,
1637760637370,914.0187323213172,,,,,
1637760637414,,7.298583984375,0.406494140625,6.644287109375,,26.664073944091797
1637760637415,,,,,97.35403442382812,
1637760637459,896.2963675275317,,,,,
1637760637549,,7.67333984375,0.390625,6.796875,,
1637760637550,,,,,97.46002197265625,26.64626693725586
1637760637551,878.8990460424645,,,,,
1637760637639,,7.734375,0.63232421875,6.383056640625,,26.681880950927734
1637760637684,,,,,97.60244750976562,
1637760637686,861.818259524518,,,,,
1637760637774,,7.46826171875,0.216064453125,6.4208984375,,
1637760637775,,,,,,26.664073944091797
1637760637776,,,,,97.71505737304688,
1637760637777,848.3755009178943,,,,,
1637760637864,,7.80517578125,0.6884765625,6.923828125,,
1637760637865,,,,,97.89720153808594,26.699689865112305
1637760637866,838.4201263815738,,,,,
1637760638000,,8.05419921875,0.02685546875,6.46484375,97.98001098632812,26.699689865112305
1637760638001,825.3119832950387,,,,,
1637760638089,,7.22412109375,-0.260009765625,6.785888671875,,26.717496871948242
1637760638090,822.0640583344865,,,,98.16217041015625,
1637760638179,,7.535400390625,0.48095703125,6.767578125,,26.717496871948242
1637760638224,,,,,98.26484680175781,
1637760638225,818.8276892850282,,,,,
1637760638314,,7.734375,,,,
1637760638315,,,-0.589599609375,6.700439453125,,26.735305786132812
1637760638316,825.3119832950387,,,,98.35096740722656,
1637760638404,,7.48046875,1.01806640625,6.53564453125,,
1637760638405,,,,,98.58941650390625,26.735305786132812
1637760638406,831.8425444524546,,,,,
1637760638494,,6.907958984375,0.2294921875,7.415771484375,,26.735305786132812
1637760638539,,,,,98.69872283935547,
1637760638540,848.3755009178943,,,,,
1637760638629,,7.181396484375,-0.45166015625,7.955322265625,,
1637760638630,,,,,,26.717496871948242
1637760638631,,,,,98.74510192871094,
1637760638632,865.2095454121638,,,,,
1637760638718,,6.446533203125,0.841064453125,7.95166015625,,
1637760638719,,,,,,26.770919799804688
1637760638720,,,,,98.87094116210938,
1637760638721,885.8195095103594,,,,,
1637760638854,,6.42822265625,-0.4052734375,7.57568359375,,
1637760638855,,,,,98.950439453125,26.735305786132812
1637760638857,910.4478583885156,,,,,
1637760638944,,6.724853515625,0.49560546875,7.58056640625,,
1637760638945,,,,,,26.717496871948242
1637760638947,932.075426414712,,,,99.1458511352539,
1637760639034,,6.583251953125,-0.177001953125,7.60009765625,,
1637760639035,,,,,99.16240692138672,26.75311279296875
1637760639036,954.1983847142766,,,,,
1637760639169,,6.500244140625,0.1123046875,7.96875,,26.75311279296875
1637760639170,,,,,99.32138061523438,
1637760639171,976.83389950193,,,,,
1637760639259,,6.363525390625,0.283203125,,,
1637760639260,,,,7.752685546875,99.45718383789062,26.735305786132812
1637760639261,996.1013793365505,,,,,
1637760639350,,6.38916015625,0.400390625,7.791748046875,,
1637760639352,,,,,,26.735305786132812
1637760639353,1011.7877758890887,,,,99.47373962402344,
1637760639484,,6.585693359375,0.257568359375,7.393798828125,,
1637760639485,,,,,99.54329681396484,26.717496871948242
1637760639486,1023.7154540907026,,,,,
1637760639575,,6.93115234375,-0.54931640625,7.62451171875,,26.735305786132812
1637760639576,,,,,99.71884155273438,
1637760639577,1031.7460297937507,,,,,
1637760639664,,5.9912109375,-0.90087890625,8.0126953125,,
1637760639665,,,,,99.73207092285156,26.770919799804688
1637760639666,1039.840688317701,,,,,
1637760639800,,6.727294921875,-0.625,8.0859375,,26.770919799804688
1637760639801,,,,,99.8016357421875,
1637760639802,1043.9121917941357,,,,,
1637760639889,,7.2705078125,-0.37841796875,7.9345703125,,26.770919799804688
1637760639890,,,,,99.91093444824219,
1637760639893,1043.9121917941357,,,,,
1637760640025,,6.336669921875,-1.583251953125,7.67333984375,,26.806535720825195
1637760640026,,,,,99.9473648071289,
1637760640027,1035.7853457121373,,,,,
1637760640114,,6.695556640625,-1.285400390625,7.34619140625,,26.75311279296875
1637760640115,,,,,100.01359558105469,
1637760640116,1023.7154540907026,,,,,
1637760640339,,6.7041015625,-1.881103515625,7.1923828125,,26.735305786132812
1637760640340,,,,,100.10302734375,
1637760640341,1011.7877758890887,,,,,
1637760640384,,6.93359375,-1.87255859375,7.481689453125,,
1637760640385,,,,,100.20901489257812,26.75311279296875
1637760640474,996.1013793365505,,,,,
1637760640519,,6.572265625,-0.1708984375,7.07275390625,,
1637760640520,,,,,,26.75311279296875
1637760640521,,,,,100.24214172363281,
1637760640655,980.6576149067859,6.390380859375,0.240478515625,7.85888671875,,
1637760640699,,,,,,26.75311279296875
1637760640700,,,,,100.37130737304688,
1637760640701,961.685767531953,,,,,
1637760640835,,6.522216796875,-0.089111328125,8.297119140625,,
1637760640836,,,,,100.4574203491211,26.788728713989258
1637760640837,946.7681294987414,,,,,
1637760640879,,6.656494140625,0.27099609375,8.13232421875,,26.806535720825195
1637760640924,,,,,100.57997131347656,
1637760640925,935.7277064642631,,,,,
1637760641014,,6.67724609375,-0.64453125,7.19970703125,,
1637760641015,,,,,,26.788728713989258
1637760641016,,,,,100.68925476074219,
1637760641017,924.8120963886876,,,,,
1637760641106,,6.40869140625,-1.453857421875,7.53662109375,100.72238159179688,26.788728713989258
1637760641107,914.0187323213172,,,,,
1637760641241,,7.117919921875,-2.093505859375,7.440185546875,100.84492492675781,26.806535720825195
1637760641242,906.8900703599686,,,,,
1637760641329,,7.57568359375,-2.27294921875,6.46240234375,,
1637760641330,,,,,100.92772674560547,26.806535720825195
1637760641331,899.8144079579533,,,,,
1637760641420,,7.862548828125,-2.718505859375,6.011962890625,,26.788728713989258
1637760641421,,,,,101.06352233886719,
1637760641422,896.2963675275317,,,,,
1637760641554,,7.440185546875,-1.544189453125,5.90087890625,,26.87776756286621
1637760641555,,,,,101.25563049316406,
1637760641556,896.2963675275317,,,,,
1637760641645,,8.614501953125,0.284423828125,6.668701171875,,26.87776756286621
1637760641646,,,,,101.3814697265625,
1637760641648,899.8144079579533,,,,,
1637760641779,,7.861328125,0.35888671875,7.6708984375,,26.824344635009766
1637760641780,,,,,101.53713989257812,
1637760641781,903.3457769492085,,,,,
1637760641870,,8.4716796875,1.427001953125,6.978759765625,,26.824344635009766
1637760641871,,,,,101.58682250976562,
1637760641873,910.4478583885156,,,,,
1637760641960,,7.459716796875,1.18896484375,5.621337890625,,
1637760641961,,,,,,26.806535720825195
1637760641962,,,,,101.74249267578125,
1637760641963,924.8120963886876,,,,,
1637760642094,,7.777099609375,0.169677734375,5.8984375,,26.87776756286621
1637760642095,,,,,101.805419921875,
1637760642096,943.0740682197406,,,,,
1637760642184,,7.945556640625,,,,
1637760642185,,,-0.01953125,6.03515625,101.97433471679688,26.87776756286621
1637760642186,961.685767531953,,,,,
1637760642274,,7.95654296875,-0.364990234375,6.300048828125,,26.89557456970215
1637760642275,,,,,102.08031463623047,
1637760642319,980.6576149067859,,,,,
1637760642409,,9.493408203125,-1.08642578125,8.5107421875,,
1637760642410,,,,,102.19292449951172,26.85995864868164
1637760642411,1000.0,,,,,
1637760642500,,6.01806640625,-2.506103515625,7.3681640625,,26.842151641845703
1637760642501,,,,,102.31878662109375,
1637760642502,1019.7238071354342,,,,,
1637760642589,,7.108154296875,-1.451416015625,7.1630859375,,26.87776756286621
1637760642634,1035.7853457121373,,,,102.34197998046875,
1637760642724,,6.912841796875,-1.23779296875,6.068115234375,,
1637760642725,,,,,,26.842151641845703
1637760642726,,,,,102.35520935058594,
1637760642727,1052.104231540471,,,,,
1637760642814,,7.158203125,-1.77978515625,,,
1637760642815,,,,6.1328125,,26.842151641845703
1637760642817,1064.5160635353789,,,,102.38833618164062,
1637760642949,,7.626953125,-2.037353515625,8.64501953125,,
1637760642950,,,,,,26.824344635009766
1637760642951,,,,,102.5572509765625,
1637760642953,1072.874460787925,,,,,
1637760643039,,6.26708984375,-0.439453125,8.642578125,,
1637760643040,,,,,,26.89557456970215
1637760643041,,,,,102.59037017822266,
1637760643042,1081.3007564174056,,,,,
1637760643129,,5.60302734375,-0.10498046875,7.0947265625,,
1637760643130,,,,,,26.87776756286621
1637760643219,,,,,102.69303894042969,
1637760643220,1081.3007564174056,,,,,
1637760643263,,6.640625,,,,
1637760643264,,,-0.054931640625,7.01904296875,,26.842151641845703
1637760643265,,,,,102.63011932373047,
1637760643311,1072.874460787925,,,,,
1637760643399,,6.962890625,,,,
1637760643400,,,-0.96435546875,7.4462890625,,26.85995864868164
1637760643401,,,,,102.70960998535156,
1637760643403,1064.5160635353789,,,,,
1637760643535,,6.612548828125,-0.313720703125,7.987060546875,102.76922607421875,26.85995864868164
1637760643536,1056.2249167911723,,,,,
1637760643624,,6.231689453125,-1.220703125,8.232421875,,26.842151641845703
1637760643625,1035.7853457121373,,,,102.80564880371094,
1637760643714,,5.49072265625,-1.776123046875,6.7919921875,,
1637760643715,,,,,,26.842151641845703
1637760643716,,,,,102.79572296142578,
1637760643717,1011.7877758890887,,,,,
1637760643850,,5.582275390625,-2.177734375,8.2275390625,,26.87776756286621
1637760643852,,,,,102.81890106201172,
1637760643853,984.4961313092145,,,,,
1637760643939,,5.2783203125,-2.447509765625,8.36669921875,,
1637760643940,,,,,,26.87776756286621
1637760643941,,,,,102.80564880371094,
1637760643942,957.934993496609,,,,,
1637760644029,,5.443115234375,-1.98486328125,8.3154296875,,
1637760644030,,,,,,26.842151641845703
1637760644031,,,,,102.97456359863281,
1637760644032,932.075426414712,,,,,
1637760644165,,5.35400390625,-1.300048828125,8.2763671875,,26.89557456970215
1637760644166,,,,,103.04080963134766,
1637760644167,914.0187323213172,,,,,
1637760644255,,4.981689453125,-1.295166015625,8.408203125,,
1637760644256,,,,,103.0076904296875,26.87776756286621
1637760644258,896.2963675275317,,,,,
1637760644344,,5.4443359375,-1.400146484375,8.985595703125,,
1637760644345,,,,,,26.89557456970215
1637760644389,,,,,103.16336059570312,
1637760644390,882.352854553812,,,,,
1637760644479,,4.3359375,-1.658935546875,8.92822265625,,
1637760644480,,,,,,26.91338348388672
1637760644481,,,,,103.19647979736328,
1637760644482,865.2095454121638,,,,,
1637760644569,,4.5947265625,-1.583251953125,9.35302734375,,
1637760644570,,,,,,26.91338348388672
1637760644571,858.4392233673389,,,,103.3786392211914,
1637760644659,,3.555908203125,-1.3134765625,9.141845703125,,
1637760644660,,,,,103.39520263671875,26.91338348388672
1637760644661,848.3755009178943,,,,,
1637760644795,,3.63037109375,-1.466064453125,9.388427734375,,26.89557456970215
1637760644796,,,,,103.5044937133789,
1637760644797,845.0450083803289,,,,,
1637760644884,,3.863525390625,-1.656494140625,9.310302734375,,
1637760644885,,,,,103.6038589477539,26.931190490722656
1637760644886,845.0450083803289,,,,,
1637760645064,,3.12255859375,-1.683349609375,9.100341796875,,
1637760645065,,,,,103.75289916992188,26.89557456970215
1637760645066,848.3755009178943,,,,,
1637760645109,,4.283447265625,-1.573486328125,8.414306640625,,26.91338348388672
1637760645110,,,,,103.78601837158203,
1637760645155,855.0724608135483,,,,,
1637760645245,,5.2197265625,-0.7958984375,8.34228515625,103.88538360595703,26.91338348388672
1637760645246,861.818259524518,,,,,
1637760645334,,6.788330078125,-0.313720703125,9.906005859375,,26.966806411743164
1637760645379,,,,,104.08079528808594,
1637760645380,878.8990460424645,,,,,
1637760645469,,5.443115234375,-0.0732421875,8.80126953125,,
1637760645470,,,,,,26.931190490722656
1637760645471,,,,,104.32588195800781,
1637760645473,899.8144079579533,,,,,
1637760645559,,5.491943359375,0.01953125,7.9248046875,104.42524719238281,26.948997497558594
1637760645560,924.8120963886876,,,,,
1637760645649,,4.967041015625,0.00244140625,8.878173828125,,26.948997497558594
1637760645650,,,,,104.54447937011719,
1637760645653,950.4761667359719,,,,,
1637760645786,,5.2392578125,0.499267578125,8.714599609375,,26.931190490722656
1637760645829,,,,,104.51467895507812,
1637760645830,973.0249882730453,,,,,
1637760645874,,4.67041015625,0.980224609375,7.703857421875,,26.948997497558594
1637760645875,,,,,104.61734008789062,
1637760645919,996.1013793365505,,,,,
1637760646009,,5.64208984375,-4.04541015625,10.535888671875,,
1637760646010,,,,,,26.9846134185791
1637760646011,,,,,104.60409545898438,
1637760646012,1015.7480391235656,,,,,
1637760646099,,6.461181640625,-3.231201171875,8.41552734375,,
1637760646144,,,,,,26.948997497558594
1637760646145,,,,,104.83262634277344,
1637760646146,1031.7460297937507,,,,,
1637760646234,,5.540771484375,-1.9384765625,6.71875,,26.948997497558594
1637760646235,,,,,104.92204284667969,
1637760646237,1047.9999930038452,,,,,
1637760646325,,6.087646484375,-2.169189453125,7.39990234375,,
1637760646370,,,,,104.95516967773438,26.948997497558594
1637760646372,1064.5160635353789,,,,,
1637760646461,,7.286376953125,-2.65869140625,7.449951171875,,26.948997497558594
1637760646462,,,,,104.99491882324219,
1637760646505,1077.0791494362115,,,,,
1637760646594,,8.60595703125,-1.34765625,10.39794921875,,
1637760646595,,,,,105.05784606933594,26.948997497558594
1637760646596,1089.79589503589,,,,,
1637760646684,,7.696533203125,,,,
1637760646685,,,0.247802734375,8.455810546875,,26.931190490722656
1637760646729,,,,,105.10420989990234,
1637760646731,1098.360709399508,,,,,
1637760646820,,5.408935546875,0.316162109375,7.578125,105.07771301269531,26.931190490722656
1637760646822,1102.669375906501,,,,,
1637760646909,,6.728515625,0.086669921875,6.5625,,26.931190490722656
1637760646910,,,,,105.0810317993164,
1637760646912,1098.360709399508,,,,,
1637760647045,,6.88720703125,0.152587890625,6.8115234375,,
1637760647046,,,,,,26.948997497558594
1637760647047,,,,,105.09758758544922,
1637760647048,1089.79589503589,,,,,
1637760647134,,6.461181640625,-0.035400390625,7.646484375,105.07109069824219,26.948997497558594
1637760647179,1077.0791494362115,,,,,
1637760647225,,6.0498046875,-0.250244140625,8.070068359375,,26.931190490722656
1637760647226,,,,,104.98497772216797,
1637760647269,1060.3621908417538,,,,,
1637760647359,,7.001953125,-1.539306640625,6.3525390625,,26.966806411743164
1637760647360,,,,,104.97504425048828,
1637760647361,1043.9121917941357,,,,,
1637760647449,,6.3720703125,-1.253662109375,6.478271484375,,26.966806411743164
1637760647494,1031.7460297937507,,,,105.05784606933594,
1637760647584,,5.52001953125,-0.8447265625,8.385009765625,,
1637760647586,,,,,105.12077331542969,26.931190490722656
1637760647587,1015.7480391235656,,,,,
1637760647674,,5.44189453125,-1.2646484375,8.48876953125,,26.948997497558594
1637760647675,,,,,105.19032287597656,
1637760647676,1003.9138793360958,,,,,
1637760647810,,5.833740234375,-1.583251953125,8.135986328125,,
1637760647811,,,,,105.31287384033203,26.9846134185791
1637760647813,992.2177819318267,,,,,
1637760647900,,5.869140625,-1.534423828125,7.872314453125,105.35923767089844,27.02022933959961
1637760647901,980.6576149067859,,,,,
1637760647989,,5.80322265625,-1.229248046875,7.855224609375,,27.002422332763672
1637760647990,,,,,105.4619140625,
1637760647991,973.0249882730453,,,,,
1637760648124,,6.082763671875,-1.298828125,8.094482421875,,27.02022933959961
1637760648125,,,,,105.54802703857422,
1637760648170,961.685767531953,,,,,
1637760648214,,6.527099609375,,,,
1637760648215,,,-0.02685546875,9.17236328125,,26.9846134185791
1637760648259,,,,,105.66063690185547,
1637760648261,954.1983847142766,,,,,
1637760648349,,4.287109375,,,,
1637760648350,,,0.0732421875,7.716064453125,,27.038036346435547
1637760648351,,,,,105.87260437011719,
1637760648353,950.4761667359719,,,,,
1637760648439,,4.859619140625,0.133056640625,8.372802734375,,
1637760648440,,,,,,27.02022933959961
1637760648441,,,,,105.97196960449219,
1637760648442,950.4761667359719,,,,,
1637760648575,,5.3564453125,0.570068359375,7.930908203125,,27.002422332763672
1637760648576,,,,,106.00839233398438,
1637760648577,950.4761667359719,,,,,
1637760648664,,5.078125,,,,
1637760648665,,,1.143798828125,8.24462890625,,27.002422332763672
1637760648666,,,,,106.0580825805664,
1637760648667,957.934993496609,,,,,
1637760648754,,5.6005859375,0.560302734375,8.399658203125,,
1637760648755,,,,,,27.038036346435547
1637760648756,,,,,106.10444641113281,
1637760648757,965.4511396055334,,,,,
1637760648889,,6.22802734375,-0.406494140625,10.3466796875,,
1637760648890,,,,,106.12100219726562,27.038036346435547
1637760648891,976.83389950193,,,,,
1637760648979,,1.81396484375,-2.0166015625,,,
1637760648980,,,,10.8544921875,,27.02022933959961
1637760648981,,,,,106.20712280273438,
1637760648982,992.2177819318267,,,,,
1637760649069,,3.10302734375,-5.49560546875,10.740966796875,,27.055843353271484
1637760649114,,,,,106.23361206054688,
1637760649115,1003.9138793360958,,,,,
1637760649204,,3.323974609375,-1.580810546875,8.565673828125,,
1637760649205,,,,,106.35616302490234,27.038036346435547
1637760649206,1015.7480391235656,,,,,
1637760649295,,5.6201171875,-0.99365234375,7.4072265625,,27.038036346435547
1637760649296,,,,,106.30647277832031,
1637760649297,1027.7227349164932,,,,,
1637760649430,,7.138671875,-1.767578125,7.249755859375,106.31642150878906,27.02022933959961
1637760649431,1035.7853457121373,,,,,
1637760649519,,7.3291015625,-1.397705078125,6.763916015625,,27.055843353271484
1637760649520,,,,,106.42903137207031,
1637760649521,1043.9121917941357,,,,,
1637760649609,,9.593505859375,-0.35888671875,6.790771484375,,
1637760649610,,,,,,27.055843353271484
1637760649611,,,,,106.51513671875,
1637760649612,1047.9999930038452,,,,,
1637760649744,,6.041259765625,,,,
1637760649745,,,2.552490234375,6.64794921875,,27.055843353271484
1637760649746,,,,,106.53169250488281,
1637760649747,1047.9999930038452,,,,,
1637760649836,,5.0,-0.13671875,9.2041015625,,27.038036346435547
1637760649837,,,,,106.51846313476562,
1637760649838,1043.9121917941357,,,,,
1637760649924,,3.85986328125,-1.083984375,8.636474609375,,27.055843353271484
1637760649969,,,,,106.614501953125,
1637760649970,1039.840688317701,,,,,
1637760650059,,4.071044921875,-1.09619140625,8.4521484375,,
1637760650060,,,,,,27.055843353271484
1637760650104,,,,,106.61781311035156,
1637760650105,1031.7460297937507,,,,,
1637760650149,,5.34423828125,0.006103515625,9.027099609375,,27.073654174804688
1637760650150,,,,,106.67080688476562,
1637760650194,1023.7154540907026,,,,,
1637760650284,,3.1103515625,-1.74072265625,11.180419921875,,27.073654174804688
1637760650285,1015.7480391235656,,,,106.83641052246094,
1637760650374,,1.220703125,-2.037353515625,9.6923828125,,
1637760650375,,,,,,27.073654174804688
1637760650419,,,,,107.01856994628906,
1637760650421,1011.7877758890887,,,,,
1637760650509,,1.712646484375,-1.34033203125,9.072265625,,27.073654174804688
1637760650510,,,,,107.14774322509766,
1637760650511,1011.7877758890887,,,,,
1637760650599,,2.13623046875,-0.372314453125,8.49365234375,,27.091461181640625
1637760650601,1007.8431377260559,,,,107.13449096679688,
1637760650734,,3.65478515625,-0.6201171875,9.81201171875,,
1637760650735,,,,,,27.091461181640625
1637760650736,,,,,107.26698303222656,
1637760650737,1007.8431377260559,,,,,
1637760650825,,4.002685546875,,,,
1637760650826,,,-0.1904296875,10.7470703125,,27.109268188476562
1637760650827,,,,,107.38289642333984,
1637760650828,1007.8431377260559,,,,,
1637760650915,,1.954345703125,1.904296875,9.95849609375,,27.109268188476562
1637760650916,,,,,107.38289642333984,
1637760650917,1011.7877758890887,,,,,
1637760651049,,2.530517578125,1.380615234375,9.57275390625,,27.144882202148438
1637760651050,,,,,107.50543212890625,
1637760651051,1015.7480391235656,,,,,
1637760651140,,2.264404296875,1.02294921875,6.66748046875,107.44912719726562,27.1270751953125
1637760651141,1019.7238071354342,,,,,
1637760651229,,4.039306640625,0.44677734375,8.458251953125,,
1637760651230,,,,,,27.1270751953125
1637760651277,1019.7238071354342,,,,107.59818267822266,
1637760651364,,3.507080078125,0.047607421875,13.548583984375,,27.109268188476562
1637760651365,,,,,107.57168579101562,
1637760651366,1023.7154540907026,,,,,
1637760651455,,1.93603515625,-1.304931640625,11.80419921875,,27.144882202148438
1637760651456,,,,,107.63130187988281,
1637760651457,1031.7460297937507,,,,,
1637760651590,,4.48486328125,-0.921630859375,9.014892578125,,27.091461181640625
1637760651591,,,,,107.60481262207031,
1637760651593,1035.7853457121373,,,,,
1637760651680,,4.964599609375,-0.0244140625,,,
1637760651681,,,,,107.60481262207031,27.109268188476562
1637760651683,1043.9121917941357,,,,,
1637760651772,,6.33544921875,-1.1474609375,7.552490234375,,27.1270751953125
1637760651773,1052.104231540471,,,,107.57499694824219,
1637760651904,,10.185546875,,,,
1637760651905,,,-0.621337890625,11.983642578125,107.6180419921875,27.109268188476562
1637760651906,1056.2249167911723,,,,,
1637760651995,,7.27294921875,1.50634765625,8.7646484375,,27.109268188476562
1637760651996,,,,,107.61473846435547,
1637760651997,1052.104231540471,,,,,
1637760652084,,5.357666015625,-0.216064453125,4.73388671875,,
1637760652085,,,,,,27.109268188476562
1637760652086,1039.840688317701,,,,107.69091796875,
1637760652219,,7.015380859375,-0.401611328125,4.8291015625,,27.144882202148438
1637760652220,,,,,107.80021667480469,
1637760652221,1031.7460297937507,,,,,
1637760652309,,9.141845703125,-1.28662109375,7.0556640625,,27.1270751953125
1637760652310,,,,,107.88301086425781,
1637760652311,1019.7238071354342,,,,,
1637760652400,,7.7099609375,-2.041015625,6.920166015625,,27.109268188476562
1637760652402,,,,,107.97244262695312,
1637760652403,1003.9138793360958,,,,,
1637760652534,,7.327880859375,-1.011962890625,6.119384765625,,
1637760652535,,,,,108.00556182861328,27.1270751953125
1637760652536,984.4961313092145,,,,,
1637760652624,,6.240234375,-0.69580078125,4.44091796875,,
1637760652625,,,,,,27.1270751953125
1637760652626,954.1983847142766,,,,108.0221176147461,
1637760652714,,7.821044921875,-1.22802734375,5.546875,,
1637760652715,,,,,,27.1270751953125
1637760652759,,,,,108.01217651367188,
1637760652761,914.0187323213172,,,,,
1637760652850,,8.22509765625,-1.375732421875,7.698974609375,,
1637760652851,,,,,107.75384521484375,27.144882202148438
1637760652853,878.8990460424645,,,,,
1637760652940,,9.56787109375,-0.172119140625,6.759033203125,,27.198307037353516
1637760652941,,,,,108.01880645751953,
1637760652985,855.0724608135483,,,,,
1637760653074,,6.700439453125,0.244140625,6.17431640625,,27.162689208984375
1637760653075,,,,,108.17447662353516,
1637760653077,841.7265421855247,,,,,
1637760653164,,6.143798828125,,,,
1637760653165,,,-0.853271484375,4.962158203125,,27.180500030517578
1637760653166,,,,,108.37651062011719,
1637760653168,831.8425444524546,,,,,
1637760653299,,7.698974609375,-1.63818359375,7.076416015625,,
1637760653344,,,,,108.55535888671875,27.198307037353516
1637760653346,828.5714342156235,,,,,
1637760653389,,8.599853515625,-2.481689453125,9.60205078125,,
1637760653390,,,,,108.65141296386719,27.198307037353516
1637760653434,825.3119832950387,,,,,
1637760653524,,7.799072265625,-2.386474609375,8.31298828125,,
1637760653525,,,,,,27.198307037353516
1637760653526,,,,,108.7375259399414,
1637760653527,828.5714342156235,,,,,
1637760653615,,5.49072265625,-1.6748046875,4.49462890625,,27.26953887939453
1637760653660,,,,,108.88987731933594,
1637760653661,831.8425444524546,,,,,
1637760653750,,7.392578125,-1.35498046875,,,
1637760653751,,,,4.53857421875,,27.23392105102539
1637760653752,,,,,108.98924255371094,
1637760653753,841.7265421855247,,,,,
1637760653839,,10.1025390625,-1.68701171875,5.682373046875,,
1637760653840,,,,,109.12834167480469,27.251728057861328
1637760653842,858.4392233673389,,,,,
1637760653975,,7.6953125,0.416259765625,5.9521484375,,27.23392105102539
1637760653976,,,,,109.16146087646484,
1637760653977,875.4579175087867,,,,,
1637760654064,,7.266845703125,-0.00244140625,5.703125,,27.23392105102539
1637760654065,,,,,109.2939453125,
1637760654066,889.2988045798326,,,,,
1637760654154,,6.407470703125,-0.7666015625,3.931884765625,,27.23392105102539
1637760654156,,,,,109.44629669189453,
1637760654157,910.4478583885156,,,,,
1637760654289,,9.112548828125,-0.345458984375,4.522705078125,,27.23392105102539
1637760654334,,,,,109.50260162353516,
1637760654335,932.075426414712,,,,,
1637760654379,,9.794921875,-1.6845703125,7.18017578125,,
1637760654380,,,,,109.65164947509766,27.251728057861328
1637760654425,965.4511396055334,,,,,
1637760654514,,10.3662109375,-3.729248046875,5.185546875,,
1637760654515,,,,,109.57215881347656,27.180500030517578
1637760654516,1011.7877758890887,,,,,
1637760654605,,6.2451171875,0.145263671875,3.699951171875,,27.162689208984375
1637760654650,,,,,109.67813110351562,
1637760654651,1056.2249167911723,,,,,
1637760654739,,7.718505859375,,,,
1637760654740,,,0.23193359375,3.568115234375,,27.216114044189453
1637760654741,,,,,109.71788024902344,
1637760654742,1089.79589503589,,,,,
1637760654830,,11.116943359375,-0.137939453125,4.54345703125,,27.180500030517578
1637760654831,,,,,109.70794677734375,
1637760654832,1120.0827850492872,,,,,
1637760654964,,9.647216796875,-0.540771484375,5.277099609375,,
1637760654965,,,,,109.744384765625,27.162689208984375
1637760655010,1137.7870371123897,,,,,
1637760655054,,7.51220703125,0.157470703125,5.3125,,
1637760655055,,,,,109.67813110351562,27.198307037353516
1637760655100,1155.7894890576522,,,,,
1637760655190,,6.571044921875,0.3076171875,4.073486328125,,
1637760655191,,,,,109.56884765625,27.144882202148438
1637760655193,1164.9048549459735,,,,,
1637760655279,,8.355712890625,-0.55419921875,5.863037109375,,
1637760655280,,,,,,27.1270751953125
1637760655324,,,,,109.57878112792969,
1637760655325,1164.9048549459735,,,,,
1637760655414,,12.926025390625,-3.343505859375,7.578125,,
1637760655415,,,,,109.3899917602539,27.109268188476562
1637760655417,1160.3375358170151,,,,,
1637760655504,,10.509033203125,,,,
1637760655505,,,-2.723388671875,5.107421875,109.2939453125,27.162689208984375
1637760655506,1151.2605238075307,,,,,
1637760655639,,5.980224609375,,,,
1637760655640,,,-0.147705078125,3.7255859375,,
1637760655641,,,,,109.23764038085938,27.144882202148438
1637760655642,1133.3333243264092,,,,,
1637760655731,,7.11669921875,0.101318359375,3.51318359375,,27.162689208984375
1637760655732,,,,,109.09191131591797,
1637760655734,1115.702521108099,,,,,
1637760655819,,11.64794921875,-0.91796875,4.4873046875,,
1637760655820,,,,,108.94618225097656,27.144882202148438
1637760655822,1094.0694595065177,,,,,
1637760655954,,9.942626953125,-0.206298828125,5.3515625,,
1637760655955,,,,,108.85675048828125,27.144882202148438
1637760655957,1068.6868156689625,,,,,
1637760656044,,8.6767578125,,,,
1637760656045,,,0.06103515625,6.500244140625,,27.180500030517578
1637760656046,1043.9121917941357,,,,108.77064514160156,
1637760656134,,5.498046875,1.031494140625,4.207763671875,,
1637760656135,,,,,108.6381607055664,27.162689208984375
1637760656137,1011.7877758890887,,,,,
1637760656269,,7.354736328125,-1.761474609375,5.91064453125,,
1637760656270,,,,,,27.23392105102539
1637760656271,,,,,108.46261596679688,
1637760656272,976.83389950193,,,,,
1637760656359,,8.03955078125,-2.515869140625,7.548828125,,27.162689208984375
1637760656360,,,,,108.33345031738281,
1637760656361,935.7277064642631,,,,,
1637760656449,,8.58154296875,-3.585205078125,5.989990234375,,
1637760656450,,,,,108.4725570678711,27.144882202148438
1637760656452,906.8900703599686,,,,,
1637760656584,,6.2158203125,-3.15185546875,5.46875,,
1637760656585,,,,,108.37319946289062,27.180500030517578
1637760656586,882.352854553812,,,,,
1637760656677,,6.339111328125,-1.981201171875,3.64990234375,,27.162689208984375
1637760656678,861.818259524518,,,,108.37982177734375,
1637760656764,,7.227783203125,-2.24853515625,5.1708984375,,27.23392105102539
1637760656809,848.3755009178943,,,,108.43612670898438,
1637760656899,,8.74755859375,-1.201171875,8.83544921875,,27.216114044189453
1637760656900,,,,,108.5719223022461,
1637760656901,835.1254508832893,,,,,
1637760656989,,9.88525390625,0.7763671875,7.44873046875,,
1637760656990,,,,,,27.23392105102539
1637760656991,,,,,108.65141296386719,
1637760656997,828.5714342156235,,,,,
1637760657126,825.3119832950387,4.19189453125,0.19775390625,5.355224609375,108.77064514160156,27.251728057861328
1637760657214,,5.657958984375,,,,
1637760657215,,,-0.794677734375,5.245361328125,,
1637760657216,,,,,108.66796875,27.23392105102539
1637760657217,828.5714342156235,,,,,
1637760657305,,7.65869140625,-0.7861328125,9.010009765625,,
1637760657306,,,,,,27.28734588623047
1637760657307,,,,,108.7176513671875,
1637760657311,831.8425444524546,,,,,
1637760657438,,8.17626953125,,,,
1637760657439,,,-1.334228515625,13.18359375,,27.28734588623047
1637760657440,,,,,108.85344696044922,
1637760657441,841.7265421855247,,,,,
1637760657529,,3.111572265625,-1.500244140625,11.0302734375,,
1637760657532,855.0724608135483,,,,108.97268676757812,27.28734588623047
1637760657619,,3.385009765625,-1.13037109375,7.166748046875,,27.26953887939453
1637760657664,868.6130555464089,,,,109.17802429199219,
1637760657756,,3.519287109375,-0.904541015625,7.099609375,,27.322959899902344
1637760657844,,,,,109.15815734863281,
1637760657845,885.8195095103594,,,,,
1637760657889,,4.5458984375,-0.582275390625,10.5615234375,,27.26953887939453
1637760657933,,,,,109.19126892089844,
1637760657934,914.0187323213172,,,,,
1637760658024,,1.876220703125,2.135009765625,10.748291015625,,
1637760658028,,,,,,27.28734588623047
1637760658069,,,,,109.25751495361328,
1637760658074,943.0740682197406,,,,,
1637760658113,,3.5205078125,,,,
1637760658114,,,0.234375,7.34130859375,,27.28734588623047
1637760658159,976.83389950193,,,,109.44298553466797,
1637760658248,,3.154296875,,,,
1637760658249,,,-0.2783203125,6.73095703125,,27.28734588623047
1637760658294,1003.9138793360958,,,,109.42642974853516,
1637760658339,,5.196533203125,-0.0732421875,10.262451171875,,27.305152893066406
1637760658385,1031.7460297937507,,,,109.45623779296875,
1637760658474,,3.306884765625,-2.498779296875,10.05615234375,,27.305152893066406
1637760658518,,,,,109.54896545410156,
1637760658520,1047.9999930038452,,,,,
1637760658564,,2.845458984375,-1.571044921875,8.89404296875,,27.305152893066406
1637760658609,1060.3621908417538,,,,109.69139099121094,
1637760658698,,2.181396484375,,,,
1637760658699,,,-0.980224609375,6.815185546875,,27.305152893066406
1637760658744,1072.874460787925,,,,109.63839721679688,
1637760658788,,2.542724609375,-1.558837890625,9.024658203125,,
1637760658789,,,,,,27.28734588623047
1637760658834,,,,,109.61852264404297,
1637760658835,1081.3007564174056,,,,,
1637760658923,,4.72900390625,,,,
1637760658924,,,0.172119140625,13.32763671875,,27.28734588623047
1637760658968,,,,,109.09191131591797,
1637760658969,1085.539712759162,,,,,
1637760659013,,1.917724609375,1.2939453125,10.089111328125,,
1637760659014,,,,,,27.322959899902344
1637760659058,,,,,109.10847473144531,
1637760659059,1085.539712759162,,,,,
1637760659148,,4.01123046875,-0.299072265625,7.254638671875,,
1637760659149,,,,,,27.322959899902344
1637760659193,,,,,109.56884765625,
1637760659194,1081.3007564174056,,,,,
1637760659238,,3.6669921875,-0.16357421875,6.8310546875,,
1637760659239,,,,,,27.26953887939453
1637760659284,1072.874460787925,,,,109.66157531738281,
1637760659374,,4.534912109375,-0.345458984375,10.018310546875,,27.322959899902344
1637760659418,,,,,109.77088165283203,
1637760659419,1064.5160635353789,,,,,
1637760659463,,3.69384765625,,,,
1637760659464,,,-2.5390625,9.696044921875,,27.322959899902344
1637760659509,,,,,109.95965576171875,
1637760659511,1052.104231540471,,,,,
1637760659598,,2.9052734375,-1.829833984375,8.41796875,,
1637760659599,,,,,,27.322959899902344
1637760659644,1035.7853457121373,,,,109.97622680664062,
1637760659689,,2.70263671875,-1.20849609375,6.614990234375,,27.322959899902344
1637760659734,1003.9138793360958,,,,109.89012145996094,
1637760659825,,3.604736328125,-0.732421875,9.573974609375,,
1637760659826,,,,,,27.34076690673828
1637760659869,,,,,109.86361694335938,
1637760659870,961.685767531953,,,,,
1637760659921,,5.95947265625,1.029052734375,13.792724609375,,
1637760659922,,,,,,27.322959899902344
1637760659959,914.0187323213172,,,,110.02922058105469,
1637760660049,,3.10791015625,1.854248046875,9.879150390625,,27.358577728271484
1637760660095,,,,,110.0656509399414,
1637760660139,885.8195095103594,,,,,
1637760660140,,4.1943359375,0.169677734375,6.73828125,,
1637760660183,,,,,,27.322959899902344
1637760660184,,,,,110.04908752441406,
1637760660229,861.818259524518,,,,,
1637760660273,,4.564208984375,0.299072265625,7.28271484375,,
1637760660274,,,,,,27.376384735107422
1637760660320,,,,,109.99940490722656,
1637760660321,841.7265421855247,,,,,
1637760660454,,4.744873046875,0.1611328125,12.747802734375,,
1637760660455,,,,,,27.322959899902344
1637760660498,,,,,109.97953796386719,
1637760660499,828.5714342156235,,,,,
1637760660543,,3.087158203125,-2.171630859375,10.313720703125,,
1637760660544,,,,,,27.34076690673828
1637760660589,,,,,110.25112915039062,
1637760660590,818.8276892850282,,,,,
1637760660678,,3.017578125,-0.911865234375,6.48193359375,,
1637760660679,,,,,,27.411998748779297
1637760660769,,,,,110.28092956542969,
1637760660770,812.3894158406005,,,,,
1637760660859,,3.507080078125,-1.029052734375,8.475341796875,,
1637760660860,,,,,,27.376384735107422
1637760660904,,,,,110.16831970214844,
1637760660905,812.3894158406005,,,,,
1637760660948,,4.82177734375,1.16455078125,12.183837890625,,
1637760660949,,,,,,27.376384735107422
1637760660995,,,,,110.33392333984375,
1637760661039,812.3894158406005,,,,,
1637760661128,,2.901611328125,1.109619140625,8.6669921875,,
1637760661129,,,,,,27.358577728271484
1637760661174,,,,,110.47966003417969,
1637760661175,812.3894158406005,,,,,
1637760661265,,4.129638671875,-0.26123046875,7.005615234375,,
1637760661266,,,,,,27.429805755615234
1637760661308,,,,,110.4697265625,
1637760661354,818.8276892850282,5.941162109375,0.125732421875,10.0048828125,,
1637760661399,,,,,110.52603149414062,27.376384735107422
1637760661444,825.3119832950387,,,,,
1637760661489,,3.338623046875,-2.21923828125,9.783935546875,,27.429805755615234
1637760661534,835.1254508832893,,,,110.64856719970703,
1637760661624,,2.864990234375,-0.86181640625,8.12255859375,,
1637760661625,,,,,,27.429805755615234
1637760661669,845.0450083803289,,,,110.67506408691406,
1637760661758,,2.205810546875,-0.849609375,6.46728515625,,
1637760661759,,,,,,27.411998748779297
1637760661804,,,,,110.56908416748047,
1637760661805,861.818259524518,,,,,
1637760661848,,3.597412109375,-0.39306640625,10.85693359375,,
1637760661849,,,,,,27.429805755615234
1637760661894,889.2988045798326,,,,110.65519714355469,
1637760661984,,5.63720703125,1.22314453125,10.751953125,,27.411998748779297
1637760662029,,,,,110.89035034179688,
1637760662030,924.8120963886876,,,,,
1637760662075,,2.371826171875,1.070556640625,8.807373046875,,27.39419174194336
1637760662120,,,,,110.94996643066406,
1637760662121,943.0740682197406,,,,,
1637760662208,,3.126220703125,,,,
1637760662209,,,-0.3271484375,6.278076171875,,27.429805755615234
1637760662254,,,,,110.91022491455078,
1637760662255,957.934993496609,,,,,
1637760662299,,4.7265625,-0.08056640625,8.8427734375,,
1637760662300,,,,,,27.429805755615234
1637760662344,,,,,110.80422973632812,
1637760662345,965.4511396055334,,,,,
1637760662434,,6.046142578125,-0.147705078125,13.272705078125,,27.447616577148438
1637760662479,,,,,111.03277587890625,
1637760662525,965.4511396055334,,,,,
1637760662526,,2.388916015625,-1.044921875,10.823974609375,,
1637760662568,,,,,,27.429805755615234
1637760662569,,,,,111.13212585449219,
1637760662614,961.685767531953,,,,,
1637760662659,,3.47900390625,-1.239013671875,6.71142578125,,27.411998748779297
1637760662704,,,,,111.16525268554688,
1637760662705,946.7681294987414,,,,,
1637760662839,,3.741455078125,-1.41357421875,8.404541015625,,27.483230590820312
1637760662884,,,,,111.0261459350586,
1637760662887,932.075426414712,,,,,
1637760662929,,3.26171875,0.10498046875,12.40478515625,,
1637760662930,,,,,,27.483230590820312
1637760662975,903.3457769492085,,,,111.22486877441406,
1637760663063,,2.75146484375,1.45751953125,,,
1637760663064,,,,9.55078125,,27.447616577148438
1637760663156,858.4392233673389,,,,111.41033935546875,
1637760663199,,3.553466796875,,,,
1637760663200,,,-0.057373046875,6.651611328125,,27.447616577148438
1637760663244,809.1872559736419,,,,111.33085632324219,
1637760663336,,4.554443359375,0.128173828125,10.003662109375,,
1637760663346,,,,,,27.465423583984375
1637760663383,762.4784534552823,,,,111.2679214477539,
1637760663426,,4.649658203125,-0.965576171875,13.096923828125,,
1637760663428,,,,,,27.465423583984375
1637760663480,709.515908057869,,,,111.37060546875,
1637760663560,,1.59912109375,-1.107177734375,10.63232421875,,
1637760663561,,,,,,27.483230590820312
1637760663604,670.4730920636382,,,,111.51632690429688,
1637760663650,,2.657470703125,-1.42333984375,7.178955078125,,
1637760663651,,,,,,27.465423583984375
1637760663696,,,,,111.38716125488281,
1637760663784,646.3022755772461,2.738037109375,-0.902099609375,8.123779296875,,
1637760663828,,,,,,27.465423583984375
1637760663829,,,,,111.35403442382812,
1637760663918,627.9809151956324,,,,,
1637760663919,,2.747802734375,0.263671875,13.453369140625,,
1637760663963,,,,,,27.465423583984375
1637760663964,,,,,111.51301574707031,
1637760664009,615.1419248381557,,,,,
1637760664053,,1.6015625,1.54541015625,9.9169921875,,
1637760664054,,,,,,27.447616577148438
1637760664099,607.5352961259179,,,,111.62893676757812,
1637760664189,,3.795166015625,-0.274658203125,7.27294921875,,27.50103759765625
1637760664234,,,,,111.622314453125,
1637760664236,599.9999713897719,,,,,
1637760664279,,4.161376953125,-0.311279296875,8.216552734375,,27.50103759765625
1637760664324,595.0155666013057,,,,111.68193054199219,
1637760664413,,4.33349609375,-0.40283203125,9.976806640625,,
1637760664414,,,,,,27.50103759765625
1637760664458,,,,,111.67530059814453,
1637760664460,592.534995739256,,,,,
1637760664504,,4.99267578125,-2.96630859375,9.215087890625,,27.518844604492188
1637760664548,,,,,111.93363952636719,
1637760664549,595.0155666013057,,,,,
